time,seconds_elapsed,AccZ,AccY,AccX
1730559805673570000,0.156570068359375,7.941778182983398,6.4788665771484375,-0.3735794425010681
1730559805683593500,0.166593505859375,7.632805347442627,6.711269378662109,-0.47168517112731934
1730559805693665300,0.176665283203125,7.407580852508545,6.864409923553467,-0.615553617477417
1730559805703704800,0.186704833984375,7.39561653137207,6.763911247253418,-0.5650052428245544
1730559805713742000,0.1967421875,7.381259441375732,6.488437652587891,-0.3927220106124878
1730559805723780900,0.20678076171875,7.244868755340576,6.232106685638428,-0.39511483907699585
1730559805733770500,0.2167705078125,7.141678333282471,5.9901323318481445,-0.5075774788856506
1730559805743789600,0.22678955078125,7.110571384429932,6.04038143157959,-0.3640081584453583
1730559805753844200,0.23684423828125,7.036394119262695,6.366403579711914,-0.2225325107574463
1730559805763877600,0.246877685546875,6.861418724060059,6.569793701171875,-0.1866401731967926
1730559805773891300,0.256891357421875,6.8279194831848145,6.529115676879883,-0.10767702013254166
1730559805783916800,0.266916748046875,7.022037029266357,6.39511775970459,-0.08853443711996078
1730559805793955600,0.27695556640625,7.323832035064697,6.34217643737793,-0.17946170270442963
1730559805803986400,0.286986328125,7.568199157714844,6.337390899658203,-0.30149564146995544
1730559805814002400,0.29700244140625,7.6615190505981445,6.474080562591553,-0.4405784606933594
1730559805824027400,0.30702734375,7.644769191741943,6.531508445739746,-0.5386841893196106
1730559805834059500,0.3170595703125,7.568199157714844,6.5506510734558105,-0.4573282301425934
1730559805844087300,0.32708740234375,7.470093250274658,6.507580280303955,-0.35443684458732605
1730559805854145500,0.3371455078125,7.283154010772705,6.40229606628418,-0.3640081584453583
1730559805864185600,0.347185546875,7.163213729858398,6.392724990844727,-0.43100717663764954
1730559805874178600,0.357178466796875,7.201797962188721,6.562615394592285,-0.39990049600601196
1730559805884199700,0.36719970703125,7.235297679901123,6.498009204864502,-0.2584248483181
1730559805894232300,0.377232421875,7.084250450134277,6.110072612762451,-0.14117653667926788
1730559805904258000,0.387258056640625,6.904788970947266,5.913562297821045,-0.1052841991186142
1730559805914300000,0.3972998046875,7.036394119262695,5.8489556312561035,-0.15553347766399384
1730559805924332000,0.40733203125,7.441379547119141,5.7792649269104,0.04336991161108017
1730559805934331600,0.41733154296875,7.616055488586426,5.681159019470215,0.4384847581386566
1730559805944350700,0.427350830078125,7.786244869232178,5.5229339599609375,0.654137909412384
1730559805954421500,0.43742138671875,7.982755661010742,5.319543838500977,0.7908278703689575
1730559805964461300,0.44746142578125,8.021040916442871,5.257031440734863,0.867398202419281
1730559805974475000,0.45747509765625,7.740781307220459,5.408078193664551,0.8267202377319336
1730559805984504300,0.46750439453125,7.491628646850586,5.463113307952881,0.9343972206115723
1730559805994528800,0.47752880859375,7.048357963562012,5.436792373657227,1.303490161895752
1730559806004557600,0.4875576171875,6.545267105102539,5.573482036590576,1.698604941368103
1730559806014594300,0.49759423828125,6.200401782989502,5.721837043762207,1.9166508913040161
1730559806024623900,0.507623779296875,6.123831272125244,5.652445316314697,2.1107685565948486
1730559806034651000,0.51765087890625,6.300900459289551,5.5396833419799805,2.295016050338745
1730559806044680200,0.52768017578125,7.007680416107178,5.13739013671875,2.0868403911590576
1730559806054701800,0.537701904296875,8.210073471069336,3.4845480918884277,1.0160523653030396
1730559806064730400,0.54773046875,8.200502395629883,4.4859442710876465,1.5813566446304321
1730559806074766300,0.557766357421875,8.432905197143555,5.712265968322754,2.862713098526001
1730559806084795600,0.567795654296875,8.327621459960938,4.95284366607666,3.6771702766418457
1730559806094820600,0.577820556640625,7.354938507080078,3.2018957138061523,3.569493293762207
1730559806104849400,0.587849365234375,6.926324367523193,3.4893336296081543,2.089233160018921
1730559806114873300,0.597873291015625,7.211369037628174,3.4965121746063232,2.161017894744873
1730559806124901600,0.607901611328125,6.995716094970703,2.507079839706421,4.070191383361816
1730559806134929200,0.61792919921875,6.432804584503174,2.7131617069244385,4.381557464599609
1730559806144957400,0.62795751953125,6.416054725646973,3.870091438293457,3.945465326309204
1730559806154985000,0.63798486328125,6.190830230712891,4.068994998931885,3.6269209384918213
1730559806165013000,0.648012939453125,6.03021240234375,4.0426740646362305,3.358625650405884
1730559806175023900,0.65802392578125,6.09960412979126,3.8174493312835693,3.0903303623199463
1730559806185050000,0.668050048828125,5.960820198059082,3.5204403400421143,2.9180471897125244
1730559806195104300,0.678104248046875,5.531907081604004,3.4749767780303955,2.9204399585723877
1730559806205133600,0.688133544921875,5.122435092926025,3.620938777923584,3.111865758895874
1730559806215161300,0.698161376953125,4.789533615112305,3.681058645248413,3.296412229537964
1730559806225190400,0.7081904296875,4.71744966506958,3.697808265686035,3.4112677574157715
1730559806235218700,0.71821875,5.043471813201904,3.6233317852020264,3.3897323608398438
1730559806245247700,0.728247802734375,5.472086429595947,3.606581926345825,3.4881372451782227
1730559806255276800,0.73827685546875,5.891428470611572,3.668795347213745,3.607778310775757
1730559806265305900,0.748305908203125,6.444768905639648,3.606581926345825,3.5814573764801025
1730559806275327700,0.75832763671875,7.2783684730529785,3.37896466255188,3.4331023693084717
1730559806285356000,0.76835595703125,8.327621459960938,3.4366915225982666,3.234198808670044
1730559806295389000,0.778388916015625,9.616455078125,3.8724844455718994,3.0759735107421875
1730559806305417500,0.78841748046875,10.81406307220459,4.325325965881348,2.937189817428589
1730559806315444700,0.79844482421875,11.506485939025879,4.437788486480713,2.884547710418701
1730559806325473300,0.808473388671875,11.499307632446289,4.171886444091797,3.128615617752075
1730559806335497200,0.818497314453125,11.192727088928223,3.9948174953460693,3.555136203765869
1730559806345525500,0.828525390625,11.12303638458252,4.29661226272583,3.4112677574157715
1730559806355529700,0.83852978515625,10.560124397277832,4.622334957122803,3.126222848892212
1730559806365555700,0.8485556640625,10.088140487670898,4.107280254364014,3.507279872894287
1730559806375620000,0.8586201171875,9.997213363647461,3.1851460933685303,3.809074640274048
1730559806385649700,0.868649658203125,10.224830627441406,2.6437699794769287,3.2844481468200684
1730559806395674600,0.878674560546875,10.9002046585083,2.095215320587158,2.1945173740386963
1730559806405704000,0.888703857421875,11.817852020263672,1.3573286533355713,0.900897741317749
1730559806415729400,0.8987294921875,12.95803165435791,0.6864410042762756,-0.40707895159721375
1730559806425758200,0.90875830078125,14.139188766479492,0.5117649435997009,-1.4347963333129883
1730559806435758800,0.9187587890625,14.850455284118652,0.5620142221450806,-2.033600091934204
1730559806445784800,0.928784912109375,15.171392440795898,0.5907281041145325,-2.249253273010254
1730559806455843300,0.93884326171875,14.51755428314209,0.8925228714942932,-1.693520188331604
1730559806465872600,0.94887255859375,13.374980926513672,1.3334003686904907,-0.5745765566825867
1730559806475905500,0.958905517578125,12.090932846069336,1.6375880241394043,0.5608177781105042
1730559806485935000,0.96893505859375,10.668100357055664,1.7333009243011475,1.6579270362854004
1730559806495958300,0.978958251953125,9.470193862915039,1.592124342918396,2.4364917278289795
1730559806505987000,0.988987060546875,8.778069496154785,1.0770692825317383,2.582453727722168
1730559806516013300,0.999013427734375,8.768199920654297,0.39421752095222473,2.285444736480713
1730559806526041900,1.009041748046875,9.42473030090332,-0.13519448041915894,1.7321045398712158
1730559806536067000,1.019067138671875,10.509875297546387,-0.4776672124862671,0.8937192559242249
1730559806546095400,1.029095458984375,11.789137840270996,-0.5183451771736145,0.5057829022407532
1730559806556126200,1.039126220703125,12.692129135131836,-0.45613181591033936,0.9918249845504761
1730559806566154800,1.04915478515625,12.998709678649902,-0.10887342691421509,1.6842480897903442
1730559806576194600,1.059194580078125,12.670594215393066,0.39421752095222473,2.6856443881988525
1730559806586224000,1.06922412109375,11.793923377990723,0.851844847202301,4.005585193634033
1730559806596245000,1.079244873046875,10.591231346130371,0.6984050869941711,5.325525760650635
1730559806606273800,1.089273681640625,9.419944763183594,0.1666002720594406,6.094519138336182
1730559806616272000,1.09927197265625,8.564809799194336,-0.09690931439399719,6.0248284339904785
1730559806626297600,1.109297607421875,8.188538551330566,-0.30987054109573364,5.782854080200195
1730559806636358000,1.11935791015625,8.047361373901367,-0.6287141442298889,5.656034469604492
1730559806646387200,1.12938720703125,8.282156944274902,-0.913759171962738,5.567500114440918
1730559806656374800,1.139374755859375,8.9910306930542,-1.2059825658798218,5.483452320098877
1730559806666399700,1.149399658203125,9.788738250732422,-1.2346965074539185,5.4164533615112305
1730559806676457200,1.159457275390625,10.22722339630127,-0.8994022011756897,5.380560874938965
1730559806686485500,1.169485595703125,10.255936622619629,-0.6358926296234131,5.428417205810547
1730559806696534300,1.1795341796875,9.82702350616455,-0.5015954375267029,5.723033428192139
1730559806706564600,1.189564697265625,17.665311813354492,-2.0802602767944336,16.153047561645508
1730559806716539100,1.1995390625,10.303792953491211,3.2114670276641846,4.395914077758789
1730559806726564000,1.209564208984375,4.686343193054199,2.42093825340271,3.6364922523498535
1730559806736644400,1.219644287109375,7.877171993255615,-0.1543370634317398,7.1458659172058105
1730559806746674700,1.2296748046875,7.465307712554932,0.5883352756500244,6.362814426422119
1730559806756699100,1.23969921875,6.389733791351318,1.7285152673721313,5.148158073425293
1730559806766729000,1.24972900390625,7.096214771270752,0.43489551544189453,5.466702461242676
1730559806776739600,1.259739501953125,7.057929515838623,-1.0453643798828125,5.644070625305176
1730559806786767600,1.269767578125,7.00050163269043,-2.5761725902557373,6.245266914367676
1730559806796810500,1.279810546875,6.425626277923584,-4.06121826171875,6.839285373687744
1730559806806813000,1.28981298828125,4.631308078765869,-2.722134828567505,5.4403815269470215
1730559806816842200,1.29984228515625,4.279263973236084,-1.3806586265563965,4.230809688568115
1730559806826884000,1.309884033203125,5.110470771789551,-1.3256237506866455,4.015156269073486
1730559806836879000,1.319879150390625,7.424330234527588,-1.5364912748336792,4.120440483093262
1730559806846909700,1.32990966796875,11.743674278259277,-1.9486548900604248,5.045266628265381
1730559806856984600,1.339984619140625,14.376078605651855,-2.1041884422302246,5.282155990600586
1730559806867022600,1.350022705078125,14.584552764892578,-2.2432711124420166,5.6344990730285645
1730559806877057000,1.36005712890625,12.04786205291748,-2.379662036895752,5.109872817993164
1730559806887069000,1.37006884765625,8.571988105773926,-1.6058831214904785,3.351447105407715
1730559806897101000,1.38010107421875,7.903493404388428,-0.42023947834968567,3.073580741882324
1730559806907110000,1.39010986328125,7.8628153800964355,0.3152543902397156,3.2054851055145264
1730559806917139700,1.4001396484375,7.225726127624512,0.8446664214134216,2.8028926849365234
1730559806927164200,1.4101640625,6.080461502075195,1.3094722032546997,2.318944215774536
1730559806937193700,1.42019384765625,7.982755661010742,1.867598056793213,2.1179471015930176
1730559806947216600,1.430216552734375,18.8150634765625,2.919243574142456,-0.6921239495277405
1730559806957245400,1.440245361328125,19.018753051757812,1.2326027154922485,0.8243274092674255
1730559806967279000,1.450279052734375,7.568199157714844,-0.1950150430202484,2.2591235637664795
1730559806977308400,1.460308349609375,4.928317546844482,-0.13040883839130402,0.833898663520813
1730559806987330800,1.470330810546875,4.667200565338135,-0.1663011759519577,0.7956135272979736
1730559806997359400,1.480359375,4.434797763824463,-0.3556332588195801,1.0878369808197021
1730559807007389200,1.49038916015625,13.511372566223145,-1.2418749332427979,3.296412229537964
1730559807017417700,1.500417724609375,14.505590438842773,-0.722034215927124,0.5727819204330444
1730559807027448600,1.510448486328125,5.752345561981201,-0.6622136831283569,0.6613163352012634
1730559807037477400,1.520477294921875,3.1435706615448,-0.5638088583946228,1.303490161895752
1730559807047515400,1.530515380859375,32.69462966918945,-0.2069791555404663,-0.6008976101875305
1730559807057545000,1.540544921875,2.4131617546081543,0.7342974543571472,-0.8380861282348633
1730559807067554000,1.550553955078125,-1.1057831048965454,0.07328019291162491,0.09122636169195175
1730559807077581800,1.560581787109375,21.82613182067871,-0.537487804889679,-0.40229329466819763
1730559807087619000,1.570619140625,6.511767864227295,-0.05593222752213478,1.090229868888855
1730559807097647600,1.580647705078125,10.996216773986816,-0.10169496387243271,-0.04755735024809837
1730559807107673600,1.590673583984375,9.458230018615723,0.030209386721253395,-0.023629123345017433
1730559807117702000,1.600701904296875,9.8871431350708,-0.09451649338006973,0.3858426511287689
1730559807127733800,1.610733642578125,9.954142570495605,-0.08015955984592438,0.2111666053533554
1730559807137762600,1.620762451171875,9.774381637573242,-0.03200400248169899,0.1869392693042755
1730559807147806200,1.63080615234375,9.879964828491211,-0.07058826833963394,0.23748764395713806
1730559807157836300,1.640836181640625,9.879964828491211,-0.06550352275371552,0.20877377688884735
1730559807167853000,1.65085302734375,9.771988868713379,-0.07058826833963394,0.21595224738121033
1730559807177881900,1.6608818359375,9.930213928222656,-0.0729810893535614,0.21355941891670227
1730559807187920400,1.67092041015625,9.829416275024414,-0.05114658549427986,0.22073788940906525
1730559807197950200,1.6809501953125,9.812666893005371,-0.08015955984592438,0.2350948303937912
1730559807207976200,1.69097607421875,9.879964828491211,-0.0729810893535614,0.23988047242164612
1730559807218005800,1.701005859375,9.863214492797852,-0.07537391036748886,0.23030917346477509
1730559807228007200,1.711007080078125,9.868000984191895,-0.07058826833963394,0.22552353143692017
1730559807238034000,1.721033935546875,9.831809043884277,-0.0729810893535614,0.20877377688884735
1730559807248087600,1.731087646484375,9.843772888183594,-0.08973085135221481,0.22073788940906525
1730559807258116900,1.741116943359375,9.865608215332031,-0.0729810893535614,0.2111666053533554
1730559807268143400,1.751143310546875,9.851250648498535,-0.07776673883199692,0.20877377688884735
1730559807278172400,1.76117236328125,9.843772888183594,-0.06819544732570648,0.20877377688884735
1730559807288181800,1.771181640625,9.843772888183594,-0.05114658549427986,0.21355941891670227
1730559807298208800,1.781208740234375,9.860821723937988,-0.05832505226135254,0.22791635990142822
1730559807308259800,1.791259765625,9.858428955078125,-0.05593222752213478,0.23030917346477509
1730559807318289400,1.801289306640625,9.829416275024414,-0.0729810893535614,0.2231307178735733
1730559807328315100,1.811315185546875,9.858428955078125,-0.06819544732570648,0.2183450609445572
1730559807338344200,1.82134423828125,9.872786521911621,-0.07537391036748886,0.23270200192928314
1730559807348370200,1.8313701171875,9.836594581604004,-0.0729810893535614,0.2183450609445572
1730559807358399000,1.84139892578125,9.83420181274414,-0.06550352275371552,0.21355941891670227
1730559807368422000,1.851421875,9.848857879638672,-0.07537391036748886,0.22073788940906525
1730559807378450200,1.8614501953125,9.870393753051758,-0.08733802288770676,0.2231307178735733
1730559807388466400,1.871466552734375,9.853643417358398,-0.0729810893535614,0.22552353143692017
1730559807398493400,1.881493408203125,9.856036186218262,-0.06311069428920746,0.23270200192928314
1730559807408542200,1.891542236328125,9.858428955078125,-0.06550352275371552,0.2183450609445572
1730559807418571300,1.9015712890625,9.856036186218262,-0.06550352275371552,0.22791635990142822
1730559807428600600,1.9116005859375,9.846165657043457,-0.0729810893535614,0.24466611444950104
1730559807438629600,1.921629638671875,9.838987350463867,-0.06819544732570648,0.23988047242164612
1730559807448656000,1.93165576171875,9.860821723937988,-0.06819544732570648,0.2183450609445572
1730559807458685000,1.941684814453125,9.865608215332031,-0.06071787327528,0.21355941891670227
1730559807468710400,1.95171044921875,9.848857879638672,-0.06311069428920746,0.20877377688884735
1730559807478739000,1.961739013671875,9.838987350463867,-0.07537391036748886,0.21595224738121033
1730559807488766200,1.97176611328125,9.863214492797852,-0.06819544732570648,0.2231307178735733
1730559807498794800,1.981794677734375,9.863214492797852,-0.07058826833963394,0.22791635990142822
1730559807508828200,1.991828125,9.863214492797852,-0.06550352275371552,0.21595224738121033
1730559807518857200,2.001857177734375,9.829416275024414,-0.046360939741134644,0.21595224738121033
1730559807528887300,2.01188720703125,9.848857879638672,-0.06550352275371552,0.2350948303937912
1730559807538916400,2.021916259765625,9.858428955078125,-0.07537391036748886,0.22791635990142822
1730559807548941300,2.03194140625,9.858428955078125,-0.06819544732570648,0.22791635990142822
1730559807558970000,2.04197021484375,9.836594581604004,-0.08255238085985184,0.22073788940906525
1730559807569001500,2.05200146484375,9.848857879638672,-0.08015955984592438,0.21595224738121033
1730559807579030500,2.062030517578125,9.853643417358398,-0.0729810893535614,0.2183450609445572
1730559807589036000,2.0720361328125,9.858428955078125,-0.05832505226135254,0.23030917346477509
1730559807599062800,2.082062744140625,9.851250648498535,-0.06071787327528,0.20877377688884735
1730559807609112300,2.0921123046875,9.853643417358398,-0.05593222752213478,0.22552353143692017
1730559807619141400,2.102141357421875,9.836594581604004,-0.07058826833963394,0.2231307178735733
1730559807629172200,2.112172119140625,9.846165657043457,-0.05353940650820732,0.2111666053533554
1730559807639201300,2.122201171875,9.856036186218262,-0.03200400248169899,0.22791635990142822
1730559807649229600,2.1322294921875,9.863214492797852,-0.06550352275371552,0.2231307178735733
1730559807659258600,2.142258544921875,9.863214492797852,-0.07776673883199692,0.2231307178735733
1730559807669281800,2.15228173828125,9.851250648498535,-0.06819544732570648,0.2183450609445572
1730559807679310300,2.162310302734375,9.843772888183594,-0.06311069428920746,0.22073788940906525
1730559807689319200,2.172319091796875,9.843772888183594,-0.05593222752213478,0.20877377688884735
1730559807699345700,2.182345703125,9.853643417358398,-0.06819544732570648,0.22552353143692017
1730559807709398500,2.1923984375,9.853643417358398,-0.06819544732570648,0.22073788940906525
1730559807719427600,2.202427490234375,9.853643417358398,-0.06819544732570648,0.2183450609445572
1730559807729456000,2.2124560546875,9.84138011932373,-0.07537391036748886,0.2231307178735733
1730559807739485200,2.222485107421875,9.856036186218262,-0.06819544732570648,0.23030917346477509
1730559807749489700,2.23248974609375,9.853643417358398,-0.07058826833963394,0.22552353143692017
1730559807759516400,2.242516357421875,9.848857879638672,-0.07058826833963394,0.2111666053533554
1730559807769560000,2.25256005859375,9.853643417358398,-0.06071787327528,0.2183450609445572
1730559807779588400,2.26258837890625,9.851250648498535,-0.07058826833963394,0.22552353143692017
1730559807789607400,2.272607421875,9.836594581604004,-0.06311069428920746,0.2231307178735733
1730559807799635000,2.282635009765625,9.851250648498535,-0.09212367236614227,0.2231307178735733
1730559807809684000,2.29268408203125,9.856036186218262,-0.07776673883199692,0.2231307178735733
1730559807819713500,2.302713623046875,9.872786521911621,-0.06819544732570648,0.2231307178735733
1730559807829739300,2.3127392578125,9.856036186218262,-0.06311069428920746,0.22791635990142822
1730559807839768600,2.3227685546875,9.853643417358398,-0.06071787327528,0.22552353143692017
1730559807849796600,2.332796630859375,9.856036186218262,-0.07058826833963394,0.22073788940906525
1730559807859825700,2.34282568359375,9.856036186218262,-0.08015955984592438,0.2183450609445572
1730559807869858000,2.352858154296875,9.853643417358398,-0.08015955984592438,0.21595224738121033
1730559807879887600,2.3628876953125,9.843772888183594,-0.05832505226135254,0.22073788940906525
1730559807889925000,2.372925048828125,9.84138011932373,-0.07058826833963394,0.22552353143692017
1730559807899955500,2.38295556640625,9.858428955078125,-0.07537391036748886,0.22073788940906525
1730559807909965300,2.39296533203125,9.853643417358398,-0.046360939741134644,0.2231307178735733
1730559807919993600,2.40299365234375,9.853643417358398,-0.06819544732570648,0.22791635990142822
1730559807930003200,2.413003173828125,9.851250648498535,-0.07776673883199692,0.23030917346477509
1730559807940029400,2.423029541015625,9.856036186218262,-0.05114658549427986,0.2231307178735733
1730559807950080300,2.433080322265625,9.84138011932373,-0.06819544732570648,0.22552353143692017
1730559807960109000,2.443109130859375,9.851250648498535,-0.0729810893535614,0.2231307178735733
1730559807970134500,2.453134521484375,9.865608215332031,-0.0729810893535614,0.2183450609445572
1730559807980163000,2.4631630859375,9.865608215332031,-0.06071787327528,0.21595224738121033
1730559807990221600,2.4732216796875,9.860821723937988,-0.0729810893535614,0.2111666053533554
1730559808000253000,2.4832529296875,9.860821723937988,-0.08015955984592438,0.21355941891670227
1730559808010229200,2.493229248046875,9.872786521911621,-0.07058826833963394,0.2231307178735733
1730559808020255200,2.503255126953125,9.865608215332031,-0.07537391036748886,0.22552353143692017
1730559808030311700,2.513311767578125,9.848857879638672,-0.06071787327528,0.22791635990142822
1730559808040340700,2.5233408203125,9.843772888183594,-0.05114658549427986,0.2183450609445572
1730559808050359600,2.533359619140625,9.870393753051758,-0.06311069428920746,0.22791635990142822
1730559808060387600,2.5433876953125,9.856036186218262,-0.06550352275371552,0.2231307178735733
1730559808070425300,2.55342529296875,9.858428955078125,-0.05593222752213478,0.2231307178735733
1730559808080454400,2.563454345703125,9.863214492797852,-0.07776673883199692,0.22073788940906525
1730559808090496500,2.57349658203125,9.846165657043457,-0.0729810893535614,0.2111666053533554
1730559808100526800,2.58352685546875,9.858428955078125,-0.08015955984592438,0.20877377688884735
1730559808110541600,2.59354150390625,9.858428955078125,-0.07537391036748886,0.2183450609445572
1730559808120564000,2.60356396484375,9.84138011932373,-0.0729810893535614,0.22791635990142822
1730559808130594300,2.61359423828125,9.856036186218262,-0.06550352275371552,0.2183450609445572
1730559808140621300,2.623621337890625,9.853643417358398,-0.06550352275371552,0.21595224738121033
1730559808150651100,2.633651123046875,9.848857879638672,-0.06311069428920746,0.21595224738121033
1730559808160691700,2.643691650390625,9.863214492797852,-0.05114658549427986,0.21355941891670227
1730559808170722800,2.653722900390625,9.853643417358398,-0.06071787327528,0.20877377688884735
1730559808180720400,2.663720458984375,9.856036186218262,-0.05832505226135254,0.21595224738121033
1730559808190748200,2.673748046875,9.851250648498535,-0.06819544732570648,0.2183450609445572
1730559808200778500,2.683778564453125,9.865608215332031,-0.05832505226135254,0.20398813486099243
1730559808210806500,2.693806640625,9.831809043884277,-0.08973085135221481,0.2063809484243393
1730559808220837600,2.703837646484375,9.856036186218262,-0.06819544732570648,0.22552353143692017
1730559808230865700,2.71386572265625,9.858428955078125,-0.043968115001916885,0.22791635990142822
1730559808240892700,2.723892578125,9.846165657043457,-0.06071787327528,0.22552353143692017
1730559808250921000,2.7339208984375,9.851250648498535,-0.07537391036748886,0.21595224738121033
1730559808260958000,2.7439580078125,9.838987350463867,-0.07058826833963394,0.23030917346477509
1730559808270987000,2.753987060546875,9.838987350463867,-0.0729810893535614,0.21355941891670227
1730559808280989000,2.763989013671875,9.843772888183594,-0.07537391036748886,0.2231307178735733
1730559808291015200,2.77401513671875,9.853643417358398,-0.06550352275371552,0.22073788940906525
1730559808301081000,2.7840810546875,9.858428955078125,-0.06819544732570648,0.2231307178735733
1730559808311111400,2.794111328125,9.848857879638672,-0.0729810893535614,0.22552353143692017
1730559808321118200,2.8041181640625,9.856036186218262,-0.06550352275371552,0.20877377688884735
1730559808331146200,2.814146240234375,9.863214492797852,-0.07537391036748886,0.22073788940906525
1730559808341177300,2.82417724609375,9.865608215332031,-0.0849452018737793,0.22791635990142822
1730559808351205600,2.83420556640625,9.865608215332031,-0.06311069428920746,0.23030917346477509
1730559808361246000,2.844245849609375,9.851250648498535,-0.06311069428920746,0.21595224738121033
1730559808371275500,2.854275634765625,9.858428955078125,-0.05114658549427986,0.21595224738121033
1730559808381287200,2.864287109375,9.843772888183594,-0.06071787327528,0.21595224738121033
1730559808391315000,2.87431494140625,9.863214492797852,-0.07537391036748886,0.21595224738121033
1730559808401356300,2.884356201171875,9.863214492797852,-0.07058826833963394,0.21355941891670227
1730559808411385300,2.89438525390625,9.856036186218262,-0.0729810893535614,0.22073788940906525
1730559808421419000,2.9044189453125,9.848857879638672,-0.08015955984592438,0.2111666053533554
1730559808431448600,2.914448486328125,9.851250648498535,-0.06819544732570648,0.2183450609445572
1730559808441480200,2.924480224609375,9.856036186218262,-0.0729810893535614,0.23748764395713806
1730559808451510000,2.934510009765625,9.848857879638672,-0.06550352275371552,0.22073788940906525
1730559808461543700,2.944543701171875,9.865608215332031,-0.07058826833963394,0.2183450609445572
1730559808471573800,2.95457373046875,9.868000984191895,-0.05832505226135254,0.22552353143692017
1730559808481593300,2.96459326171875,9.856036186218262,-0.05832505226135254,0.22073788940906525
1730559808491622400,2.974622314453125,9.853643417358398,-0.05114658549427986,0.2111666053533554
1730559808501627600,2.984627685546875,9.858428955078125,-0.06550352275371552,0.2183450609445572
1730559808511654400,2.994654296875,9.858428955078125,-0.07537391036748886,0.2231307178735733
1730559808521708000,3.0047080078125,9.851250648498535,-0.0849452018737793,0.2183450609445572
1730559808531737300,3.0147373046875,9.865608215332031,-0.07058826833963394,0.23270200192928314
1730559808541740000,3.024739990234375,9.858428955078125,-0.07058826833963394,0.2350948303937912
1730559808551766500,3.0347666015625,9.860821723937988,-0.05593222752213478,0.21355941891670227
1730559808561821000,3.044821044921875,9.868000984191895,-0.06071787327528,0.22073788940906525
1730559808571850500,3.0548505859375,9.846165657043457,-0.07058826833963394,0.21595224738121033
1730559808581874400,3.06487451171875,9.858428955078125,-0.06311069428920746,0.2183450609445572
1730559808591903200,3.0749033203125,9.843772888183594,-0.0729810893535614,0.23030917346477509
1730559808601918000,3.08491796875,9.843772888183594,-0.07537391036748886,0.22552353143692017
1730559808611945500,3.094945556640625,9.853643417358398,-0.06311069428920746,0.2231307178735733
1730559808621995800,3.104995849609375,9.860821723937988,-0.05593222752213478,0.23270200192928314
1730559808632025600,3.115025634765625,9.853643417358398,-0.0729810893535614,0.2111666053533554
1730559808642050800,3.12505078125,9.863214492797852,-0.07776673883199692,0.21355941891670227
1730559808652080000,3.135080078125,9.853643417358398,-0.07058826833963394,0.22073788940906525
1730559808662085000,3.145085205078125,9.853643417358398,-0.07058826833963394,0.2183450609445572
1730559808672111900,3.15511181640625,9.851250648498535,-0.06550352275371552,0.2231307178735733
1730559808682165500,3.16516552734375,9.868000984191895,-0.05832505226135254,0.22073788940906525
1730559808692195000,3.175195068359375,9.846165657043457,-0.06311069428920746,0.20877377688884735
1730559808702203000,3.185202880859375,9.858428955078125,-0.06550352275371552,0.20877377688884735
1730559808712230100,3.195230224609375,9.860821723937988,-0.06819544732570648,0.2231307178735733
1730559808722277600,3.205277587890625,9.848857879638672,-0.08973085135221481,0.22552353143692017
1730559808732307000,3.215306884765625,9.848857879638672,-0.07537391036748886,0.2231307178735733
1730559808742336300,3.225336181640625,9.84138011932373,-0.06819544732570648,0.22552353143692017
1730559808752365800,3.23536572265625,9.843772888183594,-0.06550352275371552,0.23030917346477509
1730559808762392600,3.245392578125,9.846165657043457,-0.0729810893535614,0.2183450609445572
1730559808772421600,3.255421630859375,9.846165657043457,-0.05832505226135254,0.21355941891670227
1730559808782448400,3.265448486328125,9.848857879638672,-0.06550352275371552,0.22791635990142822
1730559808792477200,3.275477294921875,9.860821723937988,-0.06819544732570648,0.22791635990142822
1730559808802495500,3.28549560546875,9.843772888183594,-0.07537391036748886,0.20398813486099243
1730559808812523500,3.2955234375,9.853643417358398,-0.06311069428920746,0.22552353143692017
1730559808822562300,3.305562255859375,9.868000984191895,-0.05832505226135254,0.2231307178735733
1730559808832591400,3.31559130859375,9.846165657043457,-0.06071787327528,0.2183450609445572
1730559808842619000,3.325618896484375,9.843772888183594,-0.06311069428920746,0.21595224738121033
1730559808852647700,3.335647705078125,9.846165657043457,-0.07537391036748886,0.2063809484243393
1730559808862659800,3.345659912109375,9.851250648498535,-0.06071787327528,0.20159530639648438
1730559808872686800,3.355686767578125,9.853643417358398,-0.05114658549427986,0.2111666053533554
1730559808882734300,3.365734375,9.848857879638672,-0.0487537607550621,0.2183450609445572
1730559808892763400,3.375763427734375,9.853643417358398,-0.07058826833963394,0.21595224738121033
1730559808902768400,3.385768310546875,9.863214492797852,-0.07058826833963394,0.23270200192928314
1730559808912795100,3.395795166015625,9.863214492797852,-0.06550352275371552,0.2183450609445572
1730559808922848000,3.405847900390625,9.846165657043457,-0.05353940650820732,0.21595224738121033
1730559808932877300,3.415877197265625,9.853643417358398,-0.06550352275371552,0.23030917346477509
1730559808942903800,3.42590380859375,9.851250648498535,-0.05832505226135254,0.2231307178735733
1730559808952932900,3.435932861328125,9.83420181274414,-0.0729810893535614,0.23030917346477509
1730559808962964700,3.44596484375,9.860821723937988,-0.07537391036748886,0.2231307178735733
1730559808972994300,3.455994384765625,9.851250648498535,-0.08973085135221481,0.21355941891670227
1730559808983018800,3.466018798828125,9.853643417358398,-0.0849452018737793,0.2183450609445572
1730559808993047600,3.476047607421875,9.83420181274414,-0.05593222752213478,0.23030917346477509
1730559809003057000,3.486056884765625,9.860821723937988,-0.06550352275371552,0.20877377688884735
1730559809013083600,3.496083740234375,9.865608215332031,-0.046360939741134644,0.22073788940906525
1730559809023130000,3.506130126953125,9.863214492797852,-0.05114658549427986,0.22073788940906525
1730559809033159000,3.516158935546875,9.856036186218262,-0.027218356728553772,0.22073788940906525
1730559809043189800,3.526189697265625,9.860821723937988,-0.010468599386513233,0.2183450609445572
1730559809053218800,3.53621875,9.856036186218262,-0.03200400248169899,0.2063809484243393
1730559809063233500,3.546233642578125,9.860821723937988,-0.06071787327528,0.20877377688884735
1730559809073269500,3.55626953125,9.856036186218262,-0.09212367236614227,0.2111666053533554
1730559809083297000,3.566297119140625,9.848857879638672,-0.12323036789894104,0.23270200192928314
1730559809093331200,3.576331298828125,9.84138011932373,-0.137587308883667,0.23030917346477509
1730559809103359200,3.586359130859375,9.877572059631348,-0.13040883839130402,0.22073788940906525
1730559809113390000,3.59639013671875,9.877572059631348,-0.10887342691421509,0.22791635990142822
1730559809123418600,3.606418701171875,9.858428955078125,-0.08733802288770676,0.23270200192928314
1730559809133443000,3.616443115234375,9.856036186218262,-0.06071787327528,0.24227328598499298
1730559809143471000,3.62647119140625,9.843772888183594,-0.022432712838053703,0.22073788940906525
1730559809153496600,3.63649658203125,9.853643417358398,-0.020039889961481094,0.22073788940906525
1730559809163524400,3.6465244140625,9.836594581604004,-0.020039889961481094,0.21355941891670227
1730559809173555200,3.65655517578125,9.843772888183594,-0.005682953633368015,0.20877377688884735
1730559809183583200,3.666583251953125,9.860821723937988,-0.017647067084908485,0.20398813486099243
1730559809193616000,3.676615966796875,9.868000984191895,-0.03918246924877167,0.21355941891670227
1730559809203644400,3.68664453125,9.865608215332031,-0.043968115001916885,0.2183450609445572
1730559809213672000,3.696671875,9.858428955078125,-0.07537391036748886,0.23988047242164612
1730559809223700200,3.7067001953125,9.848857879638672,-0.06819544732570648,0.23270200192928314
1730559809233730300,3.716730224609375,9.846165657043457,-0.06071787327528,0.2470589429140091
1730559809243758600,3.726758544921875,9.865608215332031,-0.08015955984592438,0.24227328598499298
1730559809253765600,3.736765625,9.865608215332031,-0.08015955984592438,0.23270200192928314
1730559809263792000,3.746792236328125,9.856036186218262,-0.07537391036748886,0.2350948303937912
1730559809273834800,3.756834716796875,9.863214492797852,-0.0849452018737793,0.22791635990142822
1730559809283862800,3.76686279296875,9.851250648498535,-0.08015955984592438,0.2111666053533554
1730559809293895200,3.776895263671875,9.838987350463867,-0.05832505226135254,0.1989033818244934
1730559809303923700,3.786923828125,9.846165657043457,-0.03918246924877167,0.20159530639648438
1730559809313960200,3.796960205078125,9.863214492797852,-0.03918246924877167,0.2183450609445572
1730559809323989500,3.806989501953125,9.856036186218262,-0.03200400248169899,0.2231307178735733
1730559809334015000,3.817014892578125,9.858428955078125,-0.043968115001916885,0.2231307178735733
1730559809344043800,3.827043701171875,9.872786521911621,-0.041575293987989426,0.22552353143692017
1730559809354051600,3.837051513671875,9.872786521911621,-0.06311069428920746,0.2470589429140091
1730559809364078300,3.847078369140625,9.872786521911621,-0.10887342691421509,0.24466611444950104
1730559809374121200,3.857121337890625,9.863214492797852,-0.11844471842050552,0.2470589429140091
1730559809384149500,3.8671494140625,9.851250648498535,-0.11844471842050552,0.22791635990142822
1730559809394181600,3.877181640625,9.836594581604004,-0.08255238085985184,0.23748764395713806
1730559809404210400,3.88721044921875,9.851250648498535,-0.09212367236614227,0.2470589429140091
1730559809414245000,3.8972451171875,9.856036186218262,-0.08255238085985184,0.2183450609445572
1730559809424274400,3.9072744140625,9.853643417358398,-0.05114658549427986,0.20398813486099243
1730559809434281700,3.91728173828125,9.853643417358398,-0.020039889961481094,0.2111666053533554
1730559809444309000,3.92730908203125,9.848857879638672,-0.012861421331763268,0.2063809484243393
1730559809454343400,3.937343505859375,9.868000984191895,-0.027218356728553772,0.20398813486099243
1730559809464371500,3.947371337890625,9.858428955078125,-0.05353940650820732,0.22073788940906525
1730559809474392300,3.957392333984375,9.843772888183594,-0.07776673883199692,0.23748764395713806
1730559809484419300,3.96741943359375,9.846165657043457,-0.11126625537872314,0.2231307178735733
1730559809494480600,3.977480712890625,9.872786521911621,-0.10408778488636017,0.23988047242164612
1730559809504511200,3.98751123046875,9.868000984191895,-0.09212367236614227,0.24466611444950104
1730559809514511000,3.997510986328125,9.853643417358398,-0.08973085135221481,0.23748764395713806
1730559809524538600,4.00753857421875,9.843772888183594,-0.08255238085985184,0.23748764395713806
1730559809534566400,4.01756640625,9.853643417358398,-0.06550352275371552,0.22552353143692017
1730559809544594000,4.027593994140625,9.853643417358398,-0.05832505226135254,0.21355941891670227
1730559809554624000,4.0376240234375,9.872786521911621,-0.06550352275371552,0.20159530639648438
1730559809564652000,4.047652099609375,9.856036186218262,-0.03918246924877167,0.19651055335998535
1730559809574680600,4.0576806640625,9.853643417358398,-0.027218356728553772,0.20398813486099243
1730559809584708600,4.06770849609375,9.851250648498535,-0.0487537607550621,0.21595224738121033
1730559809594737700,4.077737548828125,9.860821723937988,-0.06819544732570648,0.2350948303937912
1730559809604766000,4.087765869140625,9.853643417358398,-0.06071787327528,0.24945175647735596
1730559809614792200,4.097792236328125,9.84138011932373,-0.09212367236614227,0.2566302418708801
1730559809624820200,4.1078203125,9.846165657043457,-0.10169496387243271,0.23988047242164612
1730559809634872300,4.117872314453125,9.858428955078125,-0.08255238085985184,0.2350948303937912
1730559809644902400,4.12790234375,9.872786521911621,-0.09690931439399719,0.22791635990142822
1730559809654929700,4.1379296875,9.853643417358398,-0.0729810893535614,0.22073788940906525
1730559809664959700,4.147959716796875,9.848857879638672,-0.05832505226135254,0.20398813486099243
1730559809674956000,4.1579560546875,9.84138011932373,-0.07058826833963394,0.2063809484243393
1730559809684982500,4.167982421875,9.848857879638672,-0.07058826833963394,0.2063809484243393
1730559809695042600,4.17804248046875,9.875179290771484,-0.0729810893535614,0.20877377688884735
1730559809705072600,4.18807275390625,9.824630737304688,-0.041575293987989426,0.22791635990142822
1730559809715096300,4.198096435546875,9.865608215332031,-0.046360939741134644,0.21355941891670227
1730559809725125600,4.208125732421875,9.853643417358398,-0.03439682722091675,0.22073788940906525
1730559809735154400,4.218154541015625,9.846165657043457,-0.046360939741134644,0.22552353143692017
1730559809745183700,4.228183837890625,9.858428955078125,-0.08015955984592438,0.23748764395713806
1730559809755209500,4.23820947265625,9.858428955078125,-0.0849452018737793,0.2350948303937912
1730559809765238500,4.248238525390625,9.848857879638672,-0.08015955984592438,0.22073788940906525
1730559809775268400,4.258268310546875,9.858428955078125,-0.08255238085985184,0.2231307178735733
1730559809785297400,4.26829736328125,9.865608215332031,-0.08255238085985184,0.22073788940906525
1730559809795325700,4.27832568359375,9.84138011932373,-0.08015955984592438,0.22073788940906525
1730559809805354500,4.2883544921875,9.836594581604004,-0.08015955984592438,0.22073788940906525
1730559809815383300,4.29838330078125,9.865608215332031,-0.05832505226135254,0.2183450609445572
1730559809825412000,4.308412109375,9.856036186218262,-0.0729810893535614,0.2063809484243393
1730559809835439600,4.318439697265625,9.875179290771484,-0.0729810893535614,0.22073788940906525
1730559809845468400,4.328468505859375,9.846165657043457,-0.05114658549427986,0.21595224738121033
1730559809855474200,4.33847412109375,9.843772888183594,-0.05114658549427986,0.22073788940906525
1730559809865500700,4.348500732421875,9.851250648498535,-0.05114658549427986,0.21355941891670227
1730559809875550000,4.358550048828125,9.870393753051758,-0.05832505226135254,0.2350948303937912
1730559809885578800,4.368578857421875,9.856036186218262,-0.046360939741134644,0.2183450609445572
1730559809895604200,4.378604248046875,9.843772888183594,-0.05593222752213478,0.22552353143692017
1730559809905632800,4.3886328125,9.843772888183594,-0.0729810893535614,0.2231307178735733
1730559809915670800,4.3986708984375,9.863214492797852,-0.06819544732570648,0.2231307178735733
1730559809925700000,4.4087001953125,9.853643417358398,-0.0849452018737793,0.2183450609445572
1730559809935698200,4.4186982421875,9.865608215332031,-0.08973085135221481,0.20398813486099243
1730559809945724400,4.428724365234375,9.863214492797852,-0.08255238085985184,0.21595224738121033
1730559809955782700,4.43878271484375,9.858428955078125,-0.07537391036748886,0.2231307178735733
1730559809965812200,4.448812255859375,9.858428955078125,-0.07776673883199692,0.21355941891670227
1730559809975831800,4.458831787109375,9.858428955078125,-0.05114658549427986,0.2231307178735733
1730559809985860000,4.468860107421875,9.853643417358398,-0.05593222752213478,0.21595224738121033
1730559809995902700,4.47890283203125,9.838987350463867,-0.05114658549427986,0.22552353143692017
1730559810005932500,4.4889326171875,9.860821723937988,-0.06819544732570648,0.2183450609445572
1730559810015952000,4.498951904296875,9.868000984191895,-0.06819544732570648,0.2183450609445572
1730559810025980700,4.508980712890625,9.853643417358398,-0.0729810893535614,0.2231307178735733
1730559810036009200,4.51900927734375,9.853643417358398,-0.0729810893535614,0.22552353143692017
1730559810046038000,4.5290380859375,9.851250648498535,-0.0729810893535614,0.2183450609445572
1730559810056069000,4.539069091796875,9.848857879638672,-0.07537391036748886,0.22791635990142822
1730559810066098000,4.549097900390625,9.838987350463867,-0.07537391036748886,0.21355941891670227
1730559810076120000,4.5591201171875,9.858428955078125,-0.08255238085985184,0.21595224738121033
1730559810086148400,4.5691484375,9.848857879638672,-0.06819544732570648,0.2111666053533554
1730559810096195000,4.579195068359375,9.846165657043457,-0.07058826833963394,0.2183450609445572
1730559810106225200,4.58922509765625,9.860821723937988,-0.07058826833963394,0.2231307178735733
1730559810116216600,4.599216552734375,9.853643417358398,-0.05353940650820732,0.2183450609445572
1730559810126242800,4.609242919921875,9.863214492797852,-0.05832505226135254,0.22552353143692017
1730559810136294400,4.61929443359375,9.853643417358398,-0.06550352275371552,0.22791635990142822
1730559810146323200,4.6293232421875,9.863214492797852,-0.06311069428920746,0.2183450609445572
1730559810156353300,4.639353271484375,9.856036186218262,-0.0487537607550621,0.22073788940906525
1730559810166382300,4.64938232421875,9.851250648498535,-0.0729810893535614,0.22073788940906525
1730559810176408800,4.659408935546875,9.843772888183594,-0.06819544732570648,0.2183450609445572
1730559810186437400,4.669437255859375,9.858428955078125,-0.07537391036748886,0.20877377688884735
1730559810196465000,4.67946484375,9.848857879638672,-0.05832505226135254,0.2063809484243393
1730559810206493400,4.689493408203125,9.838987350463867,-0.08015955984592438,0.22552353143692017
1730559810216521000,4.69952099609375,9.848857879638672,-0.08255238085985184,0.23270200192928314
1730559810226549200,4.70954931640625,9.860821723937988,-0.07058826833963394,0.2183450609445572
1730559810236580400,4.719580322265625,9.858428955078125,-0.08255238085985184,0.2183450609445572
1730559810246609000,4.72960888671875,9.831809043884277,-0.08255238085985184,0.23270200192928314
1730559810256636000,4.739635986328125,9.846165657043457,-0.06071787327528,0.22073788940906525
1730559810266664400,4.74966455078125,9.865608215332031,-0.05114658549427986,0.2350948303937912
1730559810276695800,4.75969580078125,9.865608215332031,-0.05832505226135254,0.21355941891670227
1730559810286724600,4.769724609375,9.851250648498535,-0.05114658549427986,0.21595224738121033
1730559810296733700,4.779733642578125,9.848857879638672,-0.0487537607550621,0.22552353143692017
1730559810306801400,4.789801513671875,9.84138011932373,-0.06071787327528,0.20877377688884735
1730559810316828200,4.799828125,9.853643417358398,-0.07058826833963394,0.22791635990142822
1730559810326838800,4.8098388671875,9.853643417358398,-0.06071787327528,0.2231307178735733
1730559810336864000,4.819864013671875,9.853643417358398,-0.06819544732570648,0.2231307178735733
1730559810346883000,4.829883056640625,9.853643417358398,-0.0729810893535614,0.21595224738121033
1730559810356907800,4.83990771484375,9.83420181274414,-0.0729810893535614,0.23030917346477509
1730559810366950700,4.84995068359375,9.836594581604004,-0.06311069428920746,0.2183450609445572
1730559810376977200,4.85997705078125,9.853643417358398,-0.07058826833963394,0.22791635990142822
1730559810387007200,4.87000732421875,9.848857879638672,-0.06819544732570648,0.2231307178735733
1730559810397034000,4.880033935546875,9.858428955078125,-0.05832505226135254,0.20877377688884735
1730559810407068200,4.890068115234375,9.851250648498535,-0.07776673883199692,0.2111666053533554
1730559810417095700,4.900095703125,9.858428955078125,-0.06550352275371552,0.21595224738121033
1730559810427131000,4.910130859375,9.860821723937988,-0.07058826833963394,0.2183450609445572
1730559810437159200,4.9201591796875,9.846165657043457,-0.046360939741134644,0.2183450609445572
1730559810447167500,4.93016748046875,9.863214492797852,-0.07537391036748886,0.23270200192928314
1730559810457194000,4.940194091796875,9.863214492797852,-0.07537391036748886,0.22791635990142822
1730559810467200000,4.950199951171875,9.848857879638672,-0.0729810893535614,0.21595224738121033
1730559810477224400,4.960224365234375,9.870393753051758,-0.07058826833963394,0.23270200192928314
1730559810487296500,4.970296630859375,9.879964828491211,-0.07058826833963394,0.23748764395713806
1730559810497325800,4.980325927734375,9.856036186218262,-0.05114658549427986,0.21595224738121033
1730559810507348700,4.9903486328125,9.875179290771484,-0.0849452018737793,0.22073788940906525
1730559810517377300,5.000377197265625,9.863214492797852,-0.07776673883199692,0.2231307178735733
1730559810527409200,5.0104091796875,9.848857879638672,-0.06071787327528,0.21595224738121033
1730559810537438200,5.020438232421875,9.838987350463867,-0.0729810893535614,0.2183450609445572
1730559810547441400,5.03044140625,9.848857879638672,-0.043968115001916885,0.21595224738121033
1730559810557467600,5.040467529296875,9.858428955078125,-0.05353940650820732,0.23270200192928314
1730559810567524400,5.0505244140625,9.863214492797852,-0.05832505226135254,0.2231307178735733
1730559810577553700,5.0605537109375,9.865608215332031,-0.06550352275371552,0.22073788940906525
1730559810587574300,5.07057421875,9.853643417358398,-0.0729810893535614,0.22791635990142822
1730559810597602600,5.0806025390625,9.84138011932373,-0.07058826833963394,0.22552353143692017
1730559810607637000,5.090636962890625,9.846165657043457,-0.06819544732570648,0.21355941891670227
1730559810617666000,5.100666015625,9.863214492797852,-0.06819544732570648,0.23030917346477509
1730559810627689000,5.11068896484375,9.851250648498535,-0.08973085135221481,0.23270200192928314
1730559810637717500,5.120717529296875,9.853643417358398,-0.08733802288770676,0.22073788940906525
1730559810647753200,5.130753173828125,9.851250648498535,-0.09451649338006973,0.23030917346477509
1730559810657782500,5.140782470703125,9.860821723937988,-0.07776673883199692,0.21595224738121033
1730559810667800000,5.150800048828125,9.856036186218262,-0.046360939741134644,0.21595224738121033
1730559810677828000,5.160828125,9.843772888183594,-0.05353940650820732,0.23988047242164612
1730559810687854000,5.17085400390625,9.851250648498535,-0.06071787327528,0.23030917346477509
1730559810697881900,5.1808818359375,9.856036186218262,-0.0729810893535614,0.2350948303937912
1730559810707904500,5.190904541015625,9.848857879638672,-0.08733802288770676,0.2231307178735733
1730559810717931800,5.200931884765625,9.848857879638672,-0.07537391036748886,0.2063809484243393
1730559810727941000,5.210941162109375,9.856036186218262,-0.06550352275371552,0.22552353143692017
1730559810737966600,5.220966552734375,9.851250648498535,-0.0729810893535614,0.22552353143692017
1730559810748029000,5.23102880859375,9.848857879638672,-0.06550352275371552,0.2231307178735733
1730559810758058200,5.241058349609375,9.884750366210938,-0.07776673883199692,0.22552353143692017
1730559810768078800,5.251078857421875,9.848857879638672,-0.0729810893535614,0.23270200192928314
1730559810778107100,5.261107177734375,9.856036186218262,-0.06071787327528,0.22073788940906525
1730559810788138800,5.271138671875,9.843772888183594,-0.06071787327528,0.2231307178735733
1730559810798167600,5.28116748046875,9.848857879638672,-0.05832505226135254,0.22791635990142822
1730559810808189400,5.291189453125,9.860821723937988,-0.05114658549427986,0.22073788940906525
1730559810818217500,5.301217529296875,9.848857879638672,-0.07058826833963394,0.21595224738121033
1730559810828254200,5.311254150390625,9.856036186218262,-0.06550352275371552,0.22552353143692017
1730559810838283300,5.321283203125,9.868000984191895,-0.06819544732570648,0.21595224738121033
1730559810848307200,5.33130712890625,9.868000984191895,-0.05832505226135254,0.22073788940906525
1730559810858335700,5.341335693359375,9.860821723937988,-0.07537391036748886,0.2350948303937912
1730559810868362500,5.351362548828125,9.877572059631348,-0.06819544732570648,0.23270200192928314
1730559810878390800,5.361390869140625,9.865608215332031,-0.05114658549427986,0.22073788940906525
1730559810888418800,5.371418701171875,9.856036186218262,-0.06550352275371552,0.22791635990142822
1730559810898447000,5.381447021484375,9.865608215332031,-0.07058826833963394,0.22073788940906525
1730559810908494800,5.391494873046875,9.851250648498535,-0.0729810893535614,0.2231307178735733
1730559810918525200,5.401525146484375,9.843772888183594,-0.06550352275371552,0.22791635990142822
1730559810928549400,5.41154931640625,9.860821723937988,-0.0729810893535614,0.2231307178735733
1730559810938579200,5.4215791015625,9.84138011932373,-0.07537391036748886,0.2183450609445572
1730559810948592000,5.431592041015625,9.838987350463867,-0.06550352275371552,0.21595224738121033
1730559810958620000,5.441619873046875,9.856036186218262,-0.07537391036748886,0.21595224738121033
1730559810968681000,5.451680908203125,9.836594581604004,-0.0729810893535614,0.21595224738121033
1730559810978712300,5.46171240234375,9.848857879638672,-0.06819544732570648,0.22791635990142822
1730559810988691200,5.471691162109375,9.848857879638672,-0.05353940650820732,0.21595224738121033
1730559810998717200,5.48171728515625,9.858428955078125,-0.06071787327528,0.2111666053533554
1730559811008778800,5.49177880859375,9.858428955078125,-0.07058826833963394,0.2111666053533554
1730559811018808300,5.501808349609375,9.851250648498535,-0.06311069428920746,0.21355941891670227
1730559811028833300,5.511833251953125,9.865608215332031,-0.07058826833963394,0.2350948303937912
1730559811038862300,5.5218623046875,9.853643417358398,-0.06819544732570648,0.22552353143692017
1730559811048880400,5.53188037109375,9.848857879638672,-0.05832505226135254,0.22552353143692017
1730559811058908400,5.541908447265625,9.84138011932373,-0.06550352275371552,0.2231307178735733
1730559811068953300,5.551953369140625,9.851250648498535,-0.05832505226135254,0.22791635990142822
1730559811078983000,5.56198291015625,9.853643417358398,-0.06311069428920746,0.23030917346477509
1730559811089014300,5.57201416015625,9.838987350463867,-0.07537391036748886,0.22552353143692017
1730559811099044000,5.582044189453125,9.858428955078125,-0.08255238085985184,0.2231307178735733
1730559811109064000,5.59206396484375,9.831809043884277,-0.07058826833963394,0.22791635990142822
1730559811119092700,5.6020927734375,9.856036186218262,-0.06819544732570648,0.22791635990142822
1730559811129122300,5.612122314453125,9.858428955078125,-0.07537391036748886,0.22073788940906525
1730559811139151000,5.622151123046875,9.851250648498535,-0.08015955984592438,0.22552353143692017
1730559811149158700,5.63215869140625,9.853643417358398,-0.0849452018737793,0.22073788940906525
1730559811159185200,5.64218505859375,9.853643417358398,-0.07537391036748886,0.2183450609445572
1730559811169234000,5.65223388671875,9.860821723937988,-0.05832505226135254,0.22552353143692017
1730559811179262700,5.6622626953125,9.838987350463867,-0.05832505226135254,0.2111666053533554
1730559811189288700,5.672288818359375,9.851250648498535,-0.06311069428920746,0.20877377688884735
1730559811199317200,5.682317138671875,9.865608215332031,-0.06071787327528,0.23270200192928314
1730559811209347800,5.692347900390625,9.860821723937988,-0.05593222752213478,0.21355941891670227
1730559811219376600,5.702376708984375,9.860821723937988,-0.07537391036748886,0.2231307178735733
1730559811229404400,5.712404296875,9.868000984191895,-0.08255238085985184,0.22073788940906525
1730559811239433000,5.722432861328125,9.856036186218262,-0.07776673883199692,0.2231307178735733
1730559811249458000,5.7324580078125,9.856036186218262,-0.07058826833963394,0.22073788940906525
1730559811259486200,5.742486328125,9.868000984191895,-0.05593222752213478,0.2183450609445572
1730559811269519000,5.75251904296875,9.853643417358398,-0.05832505226135254,0.23030917346477509
1730559811279548000,5.7625478515625,9.853643417358398,-0.07776673883199692,0.22073788940906525
1730559811289577000,5.772576904296875,9.853643417358398,-0.05832505226135254,0.22073788940906525
1730559811299606000,5.78260595703125,9.851250648498535,-0.06550352275371552,0.22073788940906525
1730559811309633800,5.7926337890625,9.868000984191895,-0.06819544732570648,0.22791635990142822
1730559811319662600,5.80266259765625,9.863214492797852,-0.06550352275371552,0.2183450609445572
1730559811329688300,5.812688232421875,9.865608215332031,-0.05114658549427986,0.2183450609445572
1730559811339716600,5.822716552734375,9.865608215332031,-0.06819544732570648,0.23270200192928314
1730559811349722600,5.83272265625,9.853643417358398,-0.07776673883199692,0.22791635990142822
1730559811359748900,5.842748779296875,9.858428955078125,-0.06550352275371552,0.21595224738121033
1730559811369812200,5.852812255859375,9.870393753051758,-0.07537391036748886,0.2111666053533554
1730559811379842000,5.862842041015625,9.858428955078125,-0.06550352275371552,0.22552353143692017
1730559811389860900,5.87286083984375,9.831809043884277,-0.07537391036748886,0.22552353143692017
1730559811399889700,5.8828896484375,9.851250648498535,-0.06311069428920746,0.22791635990142822
1730559811409922600,5.892922607421875,9.868000984191895,-0.07058826833963394,0.20398813486099243
1730559811419951900,5.902951904296875,9.868000984191895,-0.0729810893535614,0.22073788940906525
1730559811429948400,5.912948486328125,9.851250648498535,-0.0729810893535614,0.2183450609445572
1730559811439974400,5.922974365234375,9.858428955078125,-0.05353940650820732,0.1989033818244934
1730559811450024700,5.933024658203125,9.856036186218262,-0.06819544732570648,0.22073788940906525
1730559811460053200,5.94305322265625,9.856036186218262,-0.07776673883199692,0.23030917346477509
1730559811470088200,5.953088134765625,9.863214492797852,-0.07058826833963394,0.2183450609445572
1730559811480117200,5.9631171875,9.851250648498535,-0.06071787327528,0.21595224738121033
1730559811490147300,5.973147216796875,9.872786521911621,-0.06311069428920746,0.23748764395713806
1730559811500176400,5.98317626953125,9.860821723937988,-0.06071787327528,0.22073788940906525
1730559811510179600,5.9931796875,9.843772888183594,-0.05832505226135254,0.2231307178735733
1730559811520206000,6.0032060546875,9.843772888183594,-0.05832505226135254,0.21595224738121033
1730559811530259000,6.013259033203125,9.860821723937988,-0.07537391036748886,0.2111666053533554
1730559811540288300,6.023288330078125,9.860821723937988,-0.08733802288770676,0.22073788940906525
1730559811550314200,6.033314208984375,9.831809043884277,-0.06819544732570648,0.22073788940906525
1730559811560343000,6.043343017578125,9.838987350463867,-0.06819544732570648,0.22791635990142822
1730559811570373000,6.053373046875,9.836594581604004,-0.05832505226135254,0.2183450609445572
1730559811580402200,6.063402099609375,9.84138011932373,-0.05353940650820732,0.21595224738121033
1730559811590426600,6.073426513671875,9.851250648498535,-0.06819544732570648,0.20877377688884735
1730559811600455200,6.083455078125,9.846165657043457,-0.0729810893535614,0.22073788940906525
1730559811610444300,6.0934443359375,9.851250648498535,-0.08015955984592438,0.2231307178735733
1730559811620469000,6.103468994140625,9.851250648498535,-0.05353940650820732,0.21595224738121033
1730559811630545000,6.113544921875,9.848857879638672,-0.06550352275371552,0.22552353143692017
1730559811640574700,6.12357470703125,9.865608215332031,-0.0729810893535614,0.22791635990142822
1730559811650584800,6.133584716796875,9.851250648498535,-0.07776673883199692,0.22552353143692017
1730559811660612600,6.143612548828125,9.848857879638672,-0.07537391036748886,0.2231307178735733
1730559811670656000,6.153656005859375,9.831809043884277,-0.0729810893535614,0.22073788940906525
1730559811680685300,6.163685302734375,9.848857879638672,-0.06550352275371552,0.22073788940906525
1730559811690705700,6.17370556640625,9.851250648498535,-0.06311069428920746,0.21595224738121033
1730559811700734200,6.183734130859375,9.848857879638672,-0.07776673883199692,0.22073788940906525
1730559811710779600,6.193779541015625,9.846165657043457,-0.0729810893535614,0.22552353143692017
1730559811720809700,6.203809814453125,9.851250648498535,-0.05353940650820732,0.2111666053533554
1730559811730825700,6.21382568359375,9.848857879638672,-0.06071787327528,0.22552353143692017
1730559811740854500,6.2238544921875,9.856036186218262,-0.06819544732570648,0.22073788940906525
1730559811750875100,6.233875244140625,9.851250648498535,-0.05353940650820732,0.21595224738121033
1730559811760903200,6.243903076171875,9.858428955078125,-0.06071787327528,0.2183450609445572
1730559811770945800,6.25394580078125,9.860821723937988,-0.06311069428920746,0.23748764395713806
1730559811780975400,6.263975341796875,9.863214492797852,-0.07776673883199692,0.22073788940906525
1730559811790997500,6.27399755859375,9.860821723937988,-0.07058826833963394,0.2063809484243393
1730559811801026000,6.284026123046875,9.853643417358398,-0.06819544732570648,0.2183450609445572
1730559811811061200,6.294061279296875,9.84138011932373,-0.06550352275371552,0.22791635990142822
1730559811821090600,6.304090576171875,9.853643417358398,-0.05353940650820732,0.2183450609445572
1730559811831115300,6.314115234375,9.851250648498535,-0.06071787327528,0.22552353143692017
1730559811841144300,6.324144287109375,9.851250648498535,-0.06071787327528,0.22791635990142822
1730559811851152100,6.334152099609375,9.83420181274414,-0.05832505226135254,0.22073788940906525
1730559811861179000,6.344178955078125,9.853643417358398,-0.07537391036748886,0.21595224738121033
1730559811871230000,6.35422998046875,9.851250648498535,-0.06819544732570648,0.2231307178735733
1730559811881259000,6.364259033203125,9.853643417358398,-0.06311069428920746,0.22791635990142822
1730559811891281000,6.374281005859375,9.848857879638672,-0.06071787327528,0.23270200192928314
1730559811901309400,6.384309326171875,9.83420181274414,-0.08255238085985184,0.23270200192928314
1730559811911338000,6.394337890625,9.848857879638672,-0.06311069428920746,0.20398813486099243
1730559811921366500,6.404366455078125,9.865608215332031,-0.05593222752213478,0.22791635990142822
1730559811931382500,6.414382568359375,9.848857879638672,-0.06311069428920746,0.23030917346477509
1730559811941409800,6.424409912109375,9.838987350463867,-0.0729810893535614,0.2350948303937912
1730559811951453200,6.434453125,9.860821723937988,-0.08015955984592438,0.22552353143692017
1730559811961482000,6.44448193359375,9.856036186218262,-0.06550352275371552,0.22791635990142822
1730559811971496700,6.45449658203125,9.856036186218262,-0.06819544732570648,0.22073788940906525
1730559811981524200,6.464524169921875,9.863214492797852,-0.06819544732570648,0.21355941891670227
1730559811991555600,6.4745556640625,9.848857879638672,-0.043968115001916885,0.21595224738121033
1730559812001583400,6.484583251953125,9.860821723937988,-0.05114658549427986,0.2183450609445572
1730559812011613400,6.494613525390625,9.858428955078125,-0.046360939741134644,0.22073788940906525
1730559812021641500,6.504641357421875,9.856036186218262,-0.06311069428920746,0.23270200192928314
1730559812031672300,6.51467236328125,9.843772888183594,-0.08015955984592438,0.2111666053533554
1730559812041700600,6.52470068359375,9.851250648498535,-0.0849452018737793,0.22552353143692017
1730559812051732700,6.534732666015625,9.856036186218262,-0.05353940650820732,0.2183450609445572
1730559812061761500,6.544761474609375,9.860821723937988,-0.05832505226135254,0.22552353143692017
1730559812071789800,6.554789794921875,9.84138011932373,-0.05593222752213478,0.22552353143692017
1730559812081818600,6.564818603515625,9.846165657043457,-0.05832505226135254,0.22552353143692017
1730559812091847400,6.574847412109375,9.868000984191895,-0.06550352275371552,0.2111666053533554
1730559812101876200,6.584876220703125,9.843772888183594,-0.0487537607550621,0.2231307178735733
1730559812111904000,6.594904052734375,9.856036186218262,-0.05353940650820732,0.21595224738121033
1730559812121932500,6.6049326171875,9.858428955078125,-0.06550352275371552,0.23030917346477509
1730559812131962400,6.61496240234375,9.858428955078125,-0.07776673883199692,0.23030917346477509
1730559812141991200,6.6249912109375,9.853643417358398,-0.07058826833963394,0.22791635990142822
1730559812152021000,6.63502099609375,9.868000984191895,-0.06311069428920746,0.22073788940906525
1730559812162050000,6.645050048828125,9.858428955078125,-0.07058826833963394,0.22791635990142822
1730559812172093400,6.655093505859375,9.860821723937988,-0.0729810893535614,0.21355941891670227
1730559812182123800,6.665123779296875,9.856036186218262,-0.07537391036748886,0.21355941891670227
1730559812192146200,6.675146240234375,9.84138011932373,-0.07058826833963394,0.2111666053533554
1730559812202175700,6.68517578125,9.831809043884277,-0.07058826833963394,0.2111666053533554
1730559812212178400,6.695178466796875,9.846165657043457,-0.07537391036748886,0.23030917346477509
1730559812222205200,6.705205078125,9.853643417358398,-0.07058826833963394,0.23030917346477509
1730559812232263400,6.715263427734375,9.868000984191895,-0.06819544732570648,0.22073788940906525
1730559812242293200,6.725293212890625,9.858428955078125,-0.0729810893535614,0.2231307178735733
1730559812252307200,6.73530712890625,9.860821723937988,-0.07058826833963394,0.23030917346477509
1730559812262335500,6.74533544921875,9.851250648498535,-0.05353940650820732,0.22073788940906525
1730559812272373000,6.755373046875,9.863214492797852,-0.06311069428920746,0.23030917346477509
1730559812282392600,6.765392578125,9.853643417358398,-0.05832505226135254,0.22791635990142822
1730559812292422000,6.775421875,9.858428955078125,-0.06550352275371552,0.21595224738121033
1730559812302451200,6.785451171875,9.848857879638672,-0.06819544732570648,0.22552353143692017
1730559812312475400,6.795475341796875,9.846165657043457,-0.06819544732570648,0.2183450609445572
1730559812322504200,6.805504150390625,9.856036186218262,-0.06550352275371552,0.22073788940906525
1730559812332558800,6.815558837890625,9.846165657043457,-0.05832505226135254,0.2183450609445572
1730559812342590200,6.825590087890625,9.853643417358398,-0.06550352275371552,0.23030917346477509
1730559812352592000,6.835591796875,9.853643417358398,-0.06550352275371552,0.22073788940906525
1730559812362620400,6.845620361328125,9.84138011932373,-0.06819544732570648,0.22552353143692017
1730559812372645000,6.85564501953125,9.863214492797852,-0.06071787327528,0.22073788940906525
1730559812382673200,6.865673095703125,9.863214492797852,-0.06071787327528,0.2063809484243393
1730559812392685300,6.875685302734375,9.843772888183594,-0.05832505226135254,0.2231307178735733
1730559812402711800,6.8857119140625,9.853643417358398,-0.05114658549427986,0.2231307178735733
1730559812412762400,6.895762451171875,9.836594581604004,-0.07058826833963394,0.2111666053533554
1730559812422791400,6.90579150390625,9.843772888183594,-0.07776673883199692,0.2183450609445572
1730559812432814000,6.91581396484375,9.843772888183594,-0.06071787327528,0.21355941891670227
1730559812442842400,6.92584228515625,9.851250648498535,-0.06550352275371552,0.2183450609445572
1730559812452874200,6.935874267578125,9.860821723937988,-0.08015955984592438,0.2231307178735733
1730559812462902800,6.94590283203125,9.860821723937988,-0.0729810893535614,0.2183450609445572
1730559812472926200,6.95592626953125,9.863214492797852,-0.06819544732570648,0.21595224738121033
1730559812482954200,6.965954345703125,9.858428955078125,-0.06819544732570648,0.21595224738121033
1730559812492988400,6.975988525390625,9.872786521911621,-0.06819544732570648,0.22073788940906525
1730559812503017200,6.986017333984375,9.853643417358398,-0.06071787327528,0.23030917346477509
1730559812513041700,6.996041748046875,9.843772888183594,-0.05832505226135254,0.23030917346477509
1730559812523070000,7.006070068359375,9.851250648498535,-0.05832505226135254,0.22552353143692017
1730559812533096700,7.0160966796875,9.856036186218262,-0.05832505226135254,0.2231307178735733
1730559812543124700,7.026124755859375,9.879964828491211,-0.07058826833963394,0.2231307178735733
1730559812553127200,7.036127197265625,9.877572059631348,-0.05593222752213478,0.21595224738121033
1730559812563153000,7.04615283203125,9.865608215332031,-0.05593222752213478,0.22791635990142822
1730559812573216000,7.056216064453125,9.860821723937988,-0.0729810893535614,0.2231307178735733
1730559812583245300,7.066245361328125,9.853643417358398,-0.06071787327528,0.2183450609445572
1730559812593286100,7.0762861328125,9.858428955078125,-0.06550352275371552,0.23748764395713806
1730559812603316700,7.086316650390625,9.863214492797852,-0.05832505226135254,0.21595224738121033
1730559812613332500,7.09633251953125,9.853643417358398,-0.05353940650820732,0.22073788940906525
1730559812623361500,7.106361572265625,9.84138011932373,-0.0849452018737793,0.2183450609445572
1730559812633394400,7.11639453125,9.853643417358398,-0.06819544732570648,0.2231307178735733
1730559812643423700,7.126423828125,9.843772888183594,-0.06071787327528,0.22791635990142822
1730559812653426000,7.136426025390625,9.83420181274414,-0.05832505226135254,0.2183450609445572
1730559812663452700,7.14645263671875,9.856036186218262,-0.06550352275371552,0.2111666053533554
1730559812673489000,7.156489013671875,9.863214492797852,-0.05114658549427986,0.1989033818244934
1730559812683516700,7.1665166015625,9.858428955078125,-0.07058826833963394,0.2183450609445572
1730559812693568800,7.17656884765625,9.851250648498535,-0.06550352275371552,0.21595224738121033
1730559812703598800,7.186598876953125,9.848857879638672,-0.05832505226135254,0.2111666053533554
1730559812713615400,7.196615478515625,9.860821723937988,-0.07537391036748886,0.22552353143692017
1730559812723644200,7.20664404296875,9.868000984191895,-0.07776673883199692,0.2183450609445572
1730559812733681700,7.216681640625,9.848857879638672,-0.06550352275371552,0.23270200192928314
1730559812743711200,7.226711181640625,9.860821723937988,-0.07058826833963394,0.2183450609445572
1730559812753735700,7.236735595703125,9.863214492797852,-0.06311069428920746,0.22791635990142822
1730559812763765000,7.246764892578125,9.856036186218262,-0.0487537607550621,0.23030917346477509
1730559812773779200,7.256779296875,9.856036186218262,-0.06311069428920746,0.2111666053533554
1730559812783806700,7.266806640625,9.856036186218262,-0.05832505226135254,0.22552353143692017
1730559812793855500,7.27685546875,9.856036186218262,-0.046360939741134644,0.22552353143692017
1730559812803885300,7.28688525390625,9.848857879638672,-0.06311069428920746,0.2231307178735733
1730559812813904100,7.296904052734375,9.83420181274414,-0.06071787327528,0.2183450609445572
1730559812823932700,7.3069326171875,9.860821723937988,-0.05593222752213478,0.22791635990142822
1730559812833961200,7.316961181640625,9.838987350463867,-0.07058826833963394,0.20877377688884735
1730559812843990000,7.326989990234375,9.84138011932373,-0.0729810893535614,0.22552353143692017
1730559812854026000,7.33702587890625,9.848857879638672,-0.0487537607550621,0.21595224738121033
1730559812864055600,7.3470556640625,9.838987350463867,-0.06550352275371552,0.22552353143692017
1730559812874061000,7.35706103515625,9.853643417358398,-0.08015955984592438,0.22552353143692017
1730559812884087800,7.367087890625,9.851250648498535,-0.08973085135221481,0.23270200192928314
1730559812894134000,7.377134033203125,9.843772888183594,-0.08015955984592438,0.22552353143692017
1730559812904163000,7.3871630859375,9.860821723937988,-0.07776673883199692,0.2111666053533554
1730559812914169600,7.397169677734375,9.853643417358398,-0.0729810893535614,0.2231307178735733
1730559812924196400,7.4071962890625,9.860821723937988,-0.06819544732570648,0.23030917346477509
1730559812934250000,7.41725,9.858428955078125,-0.0729810893535614,0.2183450609445572
1730559812944279300,7.427279296875,9.831809043884277,-0.0729810893535614,0.22073788940906525
1730559812954306000,7.43730615234375,9.843772888183594,-0.06311069428920746,0.23030917346477509
1730559812964335000,7.447335205078125,9.856036186218262,-0.06819544732570648,0.22073788940906525
1730559812974341400,7.45734130859375,9.851250648498535,-0.07537391036748886,0.2231307178735733
1730559812984368000,7.4673681640625,9.863214492797852,-0.06819544732570648,0.2231307178735733
1730559812994417400,7.47741748046875,9.846165657043457,-0.05832505226135254,0.21355941891670227
1730559813004446500,7.487446533203125,9.858428955078125,-0.06311069428920746,0.2183450609445572
1730559813014473700,7.4974736328125,9.848857879638672,-0.07537391036748886,0.2231307178735733
1730559813024502500,7.50750244140625,9.82702350616455,-0.06819544732570648,0.21355941891670227
1730559813034529000,7.517529052734375,9.858428955078125,-0.07537391036748886,0.2231307178735733
1730559813044557600,7.5275576171875,9.884750366210938,-0.06550352275371552,0.21595224738121033
1730559813054591200,7.53759130859375,9.877572059631348,-0.05832505226135254,0.22552353143692017
1730559813064620300,7.547620361328125,9.860821723937988,-0.0729810893535614,0.22073788940906525
1730559813074638600,7.557638671875,9.846165657043457,-0.06550352275371552,0.2231307178735733
1730559813084666600,7.56766650390625,9.846165657043457,-0.06819544732570648,0.2231307178735733
1730559813094703600,7.57770361328125,9.853643417358398,-0.08015955984592438,0.2111666053533554
1730559813104732400,7.587732421875,9.853643417358398,-0.0729810893535614,0.2183450609445572
1730559813114758700,7.597758544921875,9.860821723937988,-0.05832505226135254,0.22791635990142822
1730559813124787500,7.607787353515625,9.860821723937988,-0.0729810893535614,0.22073788940906525
1730559813134819600,7.617819580078125,9.853643417358398,-0.0729810893535614,0.21595224738121033
1730559813144848600,7.6278486328125,9.860821723937988,-0.05353940650820732,0.22791635990142822
1730559813154886400,7.637886474609375,9.860821723937988,-0.046360939741134644,0.2350948303937912
1730559813164916200,7.647916259765625,9.870393753051758,-0.07537391036748886,0.22791635990142822
1730559813174928000,7.657927978515625,9.856036186218262,-0.0849452018737793,0.22073788940906525
1730559813184956000,7.667955810546875,9.865608215332031,-0.0729810893535614,0.22791635990142822
1730559813194992000,7.6779921875,9.860821723937988,-0.06311069428920746,0.2183450609445572
1730559813205021200,7.688021240234375,9.870393753051758,-0.0729810893535614,0.20398813486099243
1730559813215050800,7.69805078125,9.843772888183594,-0.0729810893535614,0.22791635990142822
1730559813225079600,7.70807958984375,9.848857879638672,-0.05832505226135254,0.20877377688884735
1730559813235098600,7.7180986328125,9.853643417358398,-0.06819544732570648,0.2183450609445572
1730559813245126400,7.72812646484375,9.84138011932373,-0.07776673883199692,0.22552353143692017
1730559813255160000,7.73816015625,9.831809043884277,-0.06071787327528,0.2231307178735733
1730559813265188400,7.748188232421875,9.843772888183594,-0.05114658549427986,0.2231307178735733
1730559813275187000,7.75818701171875,9.865608215332031,-0.0849452018737793,0.23270200192928314
1730559813285212400,7.76821240234375,9.879964828491211,-0.07776673883199692,0.22552353143692017
1730559813295276800,7.77827685546875,9.851250648498535,-0.06071787327528,0.2183450609445572
1730559813305306000,7.78830615234375,9.848857879638672,-0.05832505226135254,0.2231307178735733
1730559813315333600,7.798333740234375,9.860821723937988,-0.06550352275371552,0.2231307178735733
1730559813325363000,7.808363037109375,9.858428955078125,-0.07058826833963394,0.2231307178735733
1730559813335385900,7.8183857421875,9.84138011932373,-0.07776673883199692,0.2183450609445572
1730559813345414400,7.828414306640625,9.875179290771484,-0.05832505226135254,0.2063809484243393
1730559813355427300,7.83842724609375,9.868000984191895,-0.05832505226135254,0.21595224738121033
1730559813365454000,7.8484541015625,9.851250648498535,-0.0729810893535614,0.22552353143692017
1730559813375483400,7.8584833984375,9.856036186218262,-0.06071787327528,0.22552353143692017
1730559813385510700,7.8685107421875,9.848857879638672,-0.06311069428920746,0.21595224738121033
1730559813395559700,7.8785595703125,9.858428955078125,-0.0729810893535614,0.2231307178735733
1730559813405589000,7.888589111328125,9.853643417358398,-0.05593222752213478,0.22552353143692017
1730559813415589400,7.89858935546875,9.836594581604004,-0.07776673883199692,0.2183450609445572
1730559813425616000,7.908615966796875,9.831809043884277,-0.05114658549427986,0.2183450609445572
1730559813435650800,7.91865087890625,9.863214492797852,-0.08733802288770676,0.22073788940906525
1730559813445678000,7.928677978515625,9.865608215332031,-0.06550352275371552,0.2350948303937912
1730559813455732500,7.938732421875,9.856036186218262,-0.06311069428920746,0.2231307178735733
1730559813465762600,7.948762451171875,9.843772888183594,-0.08255238085985184,0.2183450609445572
1730559813475774200,7.958774169921875,9.856036186218262,-0.06819544732570648,0.2183450609445572
1730559813485802200,7.96880224609375,9.853643417358398,-0.06311069428920746,0.2231307178735733
1730559813495849700,7.978849609375,9.853643417358398,-0.0729810893535614,0.2183450609445572
1730559813505879800,7.9888798828125,9.860821723937988,-0.0729810893535614,0.21355941891670227
1730559813515904500,7.998904541015625,9.860821723937988,-0.07058826833963394,0.21595224738121033
1730559813525934300,8.008934326171875,9.860821723937988,-0.05593222752213478,0.2231307178735733
1730559813535960800,8.0189609375,9.851250648498535,-0.05593222752213478,0.23030917346477509
1730559813545990100,8.028990234375,9.858428955078125,-0.05832505226135254,0.23270200192928314
1730559813556018200,8.03901806640625,9.848857879638672,-0.06071787327528,0.23030917346477509
1730559813566047200,8.049047119140624,9.870393753051758,-0.06311069428920746,0.23030917346477509
1730559813576075300,8.0590751953125,9.884750366210938,-0.06311069428920746,0.22073788940906525
1730559813586104300,8.069104248046875,9.853643417358398,-0.06311069428920746,0.2183450609445572
1730559813596117000,8.079116943359375,9.846165657043457,-0.06819544732570648,0.2231307178735733
1730559813606144300,8.089144287109375,9.848857879638672,-0.08733802288770676,0.23030917346477509
1730559813616149200,8.099149169921875,9.84138011932373,-0.05832505226135254,0.23030917346477509
1730559813626174500,8.109174560546874,9.843772888183594,-0.07776673883199692,0.22552353143692017
1730559813636235000,8.119235107421876,9.858428955078125,-0.08015955984592438,0.2183450609445572
1730559813646263800,8.129263916015624,9.846165657043457,-0.08015955984592438,0.22073788940906525
1730559813656296200,8.139296142578125,9.853643417358398,-0.07537391036748886,0.2111666053533554
1730559813666325200,8.1493251953125,9.863214492797852,-0.05832505226135254,0.22791635990142822
1730559813676349000,8.159348876953125,9.851250648498535,-0.06550352275371552,0.2183450609445572
1730559813686377500,8.16937744140625,9.84138011932373,-0.06311069428920746,0.22552353143692017
1730559813696400400,8.179400390625,9.853643417358398,-0.07537391036748886,0.22552353143692017
1730559813706428200,8.18942822265625,9.851250648498535,-0.07058826833963394,0.2183450609445572
1730559813716460500,8.19946044921875,9.858428955078125,-0.08255238085985184,0.22791635990142822
1730559813726488800,8.20948876953125,9.868000984191895,-0.07537391036748886,0.24227328598499298
1730559813736519200,8.219519287109375,9.858428955078125,-0.08255238085985184,0.22552353143692017
1730559813746547700,8.229547607421875,9.848857879638672,-0.09930214285850525,0.22552353143692017
1730559813756575500,8.239575439453125,9.853643417358398,-0.07058826833963394,0.20877377688884735
1730559813766603800,8.249603759765625,9.856036186218262,-0.06311069428920746,0.21355941891670227
1730559813776628500,8.25962841796875,9.860821723937988,-0.05593222752213478,0.2111666053533554
1730559813786656500,8.269656494140625,9.83420181274414,-0.05832505226135254,0.21355941891670227
1730559813796695000,8.279695068359375,9.851250648498535,-0.08015955984592438,0.2183450609445572
1730559813806724400,8.289724365234376,9.853643417358398,-0.06071787327528,0.22073788940906525
1730559813816744000,8.299743896484374,9.863214492797852,-0.07537391036748886,0.2231307178735733
1730559813826772200,8.309772216796874,9.858428955078125,-0.07058826833963394,0.2231307178735733
1730559813836812000,8.31981201171875,9.863214492797852,-0.06819544732570648,0.23030917346477509
1730559813846841300,8.32984130859375,9.872786521911621,-0.05832505226135254,0.2350948303937912
1730559813856868600,8.33986865234375,9.858428955078125,-0.0729810893535614,0.22552353143692017
1730559813866897700,8.349897705078124,9.863214492797852,-0.08255238085985184,0.22552353143692017
1730559813876928300,8.35992822265625,9.858428955078125,-0.06311069428920746,0.22073788940906525
1730559813886957600,8.36995751953125,9.846165657043457,-0.05114658549427986,0.2111666053533554
1730559813896989200,8.3799892578125,9.860821723937988,-0.05593222752213478,0.22552353143692017
1730559813907018800,8.390018798828125,9.851250648498535,-0.07776673883199692,0.23748764395713806
1730559813917038600,8.40003857421875,9.860821723937988,-0.07058826833963394,0.2350948303937912
1730559813927067100,8.410067138671875,9.858428955078125,-0.06819544732570648,0.22073788940906525
1730559813937112600,8.420112548828126,9.860821723937988,-0.06819544732570648,0.23270200192928314
1730559813947143000,8.430142822265625,9.856036186218262,-0.06311069428920746,0.2350948303937912
1730559813957157400,8.440157470703125,9.858428955078125,-0.06819544732570648,0.22073788940906525
1730559813967186200,8.450186279296876,9.848857879638672,-0.06819544732570648,0.2183450609445572
1730559813977203700,8.46020361328125,9.851250648498535,-0.07058826833963394,0.22073788940906525
1730559813987231200,8.470231201171876,9.851250648498535,-0.06071787327528,0.22073788940906525
1730559813997271000,8.48027099609375,9.860821723937988,-0.06071787327528,0.23270200192928314
1730559814007299800,8.4902998046875,9.851250648498535,-0.07776673883199692,0.23030917346477509
1730559814017329400,8.500329345703125,9.858428955078125,-0.06550352275371552,0.2231307178735733
1730559814027358200,8.510358154296876,9.860821723937988,-0.06311069428920746,0.22552353143692017
1730559814037383000,8.5203828125,9.84138011932373,-0.06819544732570648,0.22073788940906525
1730559814047411500,8.530411376953126,9.843772888183594,-0.05593222752213478,0.2231307178735733
1730559814057420000,8.540419921875,9.856036186218262,-0.07058826833963394,0.22073788940906525
1730559814067446500,8.550446533203125,9.853643417358398,-0.07776673883199692,0.23270200192928314
1730559814077488000,8.560488037109375,9.851250648498535,-0.07058826833963394,0.22791635990142822
1730559814087516200,8.57051611328125,9.875179290771484,-0.0849452018737793,0.22073788940906525
1730559814097559000,8.58055908203125,9.868000984191895,-0.08015955984592438,0.21595224738121033
1730559814107588600,8.590588623046875,9.838987350463867,-0.08015955984592438,0.2231307178735733
1730559814117609000,8.60060888671875,9.865608215332031,-0.0487537607550621,0.23030917346477509
1730559814127637500,8.610637451171876,9.856036186218262,-0.041575293987989426,0.22791635990142822
1730559814137668900,8.6206689453125,9.860821723937988,-0.06550352275371552,0.22073788940906525
1730559814147697700,8.63069775390625,9.84138011932373,-0.07537391036748886,0.22552353143692017
1730559814157724700,8.640724609375,9.851250648498535,-0.06071787327528,0.2231307178735733
1730559814167753200,8.650753173828125,9.848857879638672,-0.0487537607550621,0.2350948303937912
1730559814177778000,8.66077783203125,9.848857879638672,-0.07058826833963394,0.23748764395713806
1730559814187806200,8.67080615234375,9.843772888183594,-0.06550352275371552,0.2231307178735733
1730559814197837600,8.680837646484376,9.838987350463867,-0.06311069428920746,0.2183450609445572
1730559814207866400,8.690866455078124,9.848857879638672,-0.06819544732570648,0.2350948303937912
1730559814217900300,8.700900390625,9.848857879638672,-0.0729810893535614,0.22791635990142822
1730559814227929300,8.710929443359374,9.843772888183594,-0.06550352275371552,0.22552353143692017
1730559814237955300,8.720955322265626,9.863214492797852,-0.06071787327528,0.22791635990142822
1730559814247984000,8.730984130859374,9.848857879638672,-0.05832505226135254,0.22791635990142822
1730559814258012700,8.7410126953125,9.860821723937988,-0.07058826833963394,0.2350948303937912
1730559814268041200,8.751041259765625,9.872786521911621,-0.06819544732570648,0.23270200192928314
1730559814278065400,8.7610654296875,9.863214492797852,-0.05832505226135254,0.23030917346477509
1730559814288093700,8.77109375,9.877572059631348,-0.07537391036748886,0.2231307178735733
1730559814298124800,8.781124755859375,9.865608215332031,-0.0729810893535614,0.2231307178735733
1730559814308153300,8.7911533203125,9.853643417358398,-0.06311069428920746,0.22552353143692017
1730559814318172200,8.801172119140626,9.853643417358398,-0.05832505226135254,0.2231307178735733
1730559814328199700,8.81119970703125,9.856036186218262,-0.05593222752213478,0.2183450609445572
1730559814338227200,8.821227294921876,9.856036186218262,-0.06550352275371552,0.22552353143692017
1730559814348255000,8.8312548828125,9.851250648498535,-0.07537391036748886,0.23748764395713806
1730559814358288600,8.84128857421875,9.877572059631348,-0.08973085135221481,0.23270200192928314
1730559814368316700,8.851316650390626,9.863214492797852,-0.0729810893535614,0.22073788940906525
1730559814378339000,8.861339111328125,9.860821723937988,-0.05593222752213478,0.2063809484243393
1730559814388366600,8.87136669921875,9.836594581604004,-0.05832505226135254,0.21355941891670227
1730559814398373600,8.88137353515625,9.829416275024414,-0.0729810893535614,0.2231307178735733
1730559814408399000,8.891399169921876,9.856036186218262,-0.07537391036748886,0.2183450609445572
1730559814418453800,8.901453857421876,9.848857879638672,-0.06311069428920746,0.22552353143692017
1730559814428482300,8.911482421875,9.83420181274414,-0.06311069428920746,0.22552353143692017
1730559814438513000,8.921512939453125,9.838987350463867,-0.06819544732570648,0.22791635990142822
1730559814448541700,8.931541748046875,9.856036186218262,-0.0729810893535614,0.2350948303937912
1730559814458576400,8.941576416015625,9.868000984191895,-0.06311069428920746,0.23030917346477509
1730559814468605700,8.951605712890625,9.868000984191895,-0.06819544732570648,0.22552353143692017
1730559814478630000,8.9616298828125,9.853643417358398,-0.0487537607550621,0.22073788940906525
1730559814488658700,8.97165869140625,9.853643417358398,-0.05832505226135254,0.22552353143692017
1730559814498692400,8.9816923828125,9.858428955078125,-0.07058826833963394,0.2063809484243393
1730559814508721700,8.9917216796875,9.856036186218262,-0.06550352275371552,0.22073788940906525
1730559814518741500,9.001741455078125,9.872786521911621,-0.07776673883199692,0.22791635990142822
1730559814528780000,9.011780029296874,9.870393753051758,-0.0729810893535614,0.2350948303937912
1730559814538808300,9.021808349609374,9.863214492797852,-0.05593222752213478,0.2183450609445572
1730559814548838100,9.031838134765625,9.853643417358398,-0.0729810893535614,0.21595224738121033
1730559814558866400,9.041866455078125,9.853643417358398,-0.06311069428920746,0.22791635990142822
1730559814568894700,9.051894775390625,9.851250648498535,-0.08015955984592438,0.2183450609445572
1730559814578923000,9.061923095703126,9.858428955078125,-0.06311069428920746,0.2183450609445572
1730559814588954400,9.071954345703125,9.853643417358398,-0.06311069428920746,0.2231307178735733
1730559814598983000,9.08198291015625,9.853643417358398,-0.06819544732570648,0.21595224738121033
1730559814609027000,9.092027099609375,9.846165657043457,-0.0729810893535614,0.21595224738121033
1730559814619057200,9.10205712890625,9.843772888183594,-0.06550352275371552,0.2111666053533554
1730559814629062100,9.112062255859374,9.856036186218262,-0.06550352275371552,0.2231307178735733
1730559814639090000,9.12208984375,9.860821723937988,-0.05593222752213478,0.21595224738121033
1730559814649114000,9.132114013671876,9.863214492797852,-0.08255238085985184,0.2183450609445572
1730559814659141400,9.142141357421876,9.843772888183594,-0.06819544732570648,0.22073788940906525
1730559814669175300,9.15217529296875,9.851250648498535,-0.0729810893535614,0.2231307178735733
1730559814679203300,9.162203369140625,9.856036186218262,-0.0729810893535614,0.23030917346477509
1730559814689238300,9.17223828125,9.865608215332031,-0.06071787327528,0.2231307178735733
1730559814699267000,9.18226708984375,9.838987350463867,-0.046360939741134644,0.21595224738121033
1730559814709291800,9.192291748046875,9.856036186218262,-0.07776673883199692,0.22791635990142822
1730559814719320000,9.202320068359375,9.851250648498535,-0.06071787327528,0.22791635990142822
1730559814729347600,9.21234765625,9.858428955078125,-0.05593222752213478,0.2183450609445572
1730559814739375600,9.222375732421876,9.853643417358398,-0.06550352275371552,0.21595224738121033
1730559814749382100,9.232382080078125,9.838987350463867,-0.07537391036748886,0.21355941891670227
1730559814759408400,9.242408447265625,9.860821723937988,-0.08015955984592438,0.2183450609445572
1730559814769460200,9.252460205078124,9.868000984191895,-0.06071787327528,0.22552353143692017
1730559814779489000,9.262489013671875,9.856036186218262,-0.06071787327528,0.20398813486099243
1730559814789524500,9.2725244140625,9.865608215332031,-0.0729810893535614,0.20877377688884735
1730559814799553800,9.2825537109375,9.860821723937988,-0.07537391036748886,0.2231307178735733
1730559814809583000,9.2925830078125,9.858428955078125,-0.06550352275371552,0.23270200192928314
1730559814819612400,9.3026123046875,9.856036186218262,-0.08015955984592438,0.2183450609445572
1730559814829636000,9.312635986328125,9.84138011932373,-0.05832505226135254,0.22791635990142822
1730559814839665000,9.322664794921875,9.848857879638672,-0.0729810893535614,0.22552353143692017
1730559814849693200,9.332693115234376,9.851250648498535,-0.08015955984592438,0.22552353143692017
1730559814859722000,9.342721923828124,9.836594581604004,-0.05832505226135254,0.22791635990142822
1730559814869745200,9.3527451171875,9.865608215332031,-0.05114658549427986,0.23030917346477509
1730559814879773200,9.362773193359375,9.853643417358398,-0.06819544732570648,0.2231307178735733
1730559814889803500,9.372803466796874,9.856036186218262,-0.06311069428920746,0.23270200192928314
1730559814899831800,9.382831787109374,9.858428955078125,-0.05114658549427986,0.21355941891670227
1730559814909859800,9.39285986328125,9.860821723937988,-0.06071787327528,0.2231307178735733
1730559814919888100,9.40288818359375,9.848857879638672,-0.0849452018737793,0.2231307178735733
1730559814929894700,9.412894775390624,9.848857879638672,-0.08255238085985184,0.22073788940906525
1730559814939920600,9.422920654296876,9.851250648498535,-0.06819544732570648,0.23988047242164612
1730559814949974800,9.432974853515624,9.851250648498535,-0.08255238085985184,0.2231307178735733
1730559814960003600,9.443003662109374,9.848857879638672,-0.06819544732570648,0.22552353143692017
1730559814970032000,9.4530322265625,9.858428955078125,-0.06071787327528,0.2183450609445572
1730559814980061000,9.46306103515625,9.865608215332031,-0.05832505226135254,0.22791635990142822
1730559814990093600,9.473093505859374,9.84138011932373,-0.06311069428920746,0.22552353143692017
1730559815000123000,9.483122802734375,9.853643417358398,-0.07537391036748886,0.21595224738121033
1730559815010126600,9.493126708984375,9.870393753051758,-0.07058826833963394,0.22073788940906525
1730559815020153300,9.5031533203125,9.84138011932373,-0.06819544732570648,0.23270200192928314
1730559815030206200,9.513206298828125,9.858428955078125,-0.07776673883199692,0.22791635990142822
1730559815040235500,9.523235595703126,9.856036186218262,-0.0729810893535614,0.21595224738121033
1730559815050261800,9.53326171875,9.846165657043457,-0.06819544732570648,0.23030917346477509
1730559815060290800,9.543290771484376,9.851250648498535,-0.0729810893535614,0.22791635990142822
1730559815070316500,9.553316650390625,9.848857879638672,-0.06819544732570648,0.21595224738121033
1730559815080345300,9.563345458984376,9.856036186218262,-0.06819544732570648,0.2231307178735733
1730559815090378000,9.5733779296875,9.865608215332031,-0.07537391036748886,0.23270200192928314
1730559815100407000,9.583406982421875,9.851250648498535,-0.05593222752213478,0.23988047242164612
1730559815110430700,9.5934306640625,9.84138011932373,-0.06819544732570648,0.23270200192928314
1730559815120459300,9.603459228515625,9.853643417358398,-0.08015955984592438,0.22552353143692017
1730559815130488800,9.61348876953125,9.858428955078125,-0.06550352275371552,0.22552353143692017
1730559815140517400,9.623517333984376,9.856036186218262,-0.06819544732570648,0.22073788940906525
1730559815150550800,9.63355078125,9.865608215332031,-0.07776673883199692,0.2231307178735733
1730559815160580000,9.643580078125,9.860821723937988,-0.06819544732570648,0.2231307178735733
1730559815170611700,9.65361181640625,9.863214492797852,-0.06550352275371552,0.23270200192928314
1730559815180641000,9.66364111328125,9.843772888183594,-0.07058826833963394,0.22073788940906525
1730559815190649900,9.67364990234375,9.831809043884277,-0.05353940650820732,0.2183450609445572
1730559815200677000,9.683677001953125,9.848857879638672,-0.08015955984592438,0.2183450609445572
1730559815210714400,9.69371435546875,9.879964828491211,-0.08255238085985184,0.2183450609445572
1730559815220742700,9.70374267578125,9.860821723937988,-0.05353940650820732,0.20398813486099243
1730559815230779100,9.713779052734376,9.851250648498535,-0.08733802288770676,0.2231307178735733
1730559815240808200,9.72380810546875,9.858428955078125,-0.08255238085985184,0.2231307178735733
1730559815250803200,9.73380322265625,9.856036186218262,-0.06311069428920746,0.22073788940906525
1730559815260829000,9.743828857421875,9.851250648498535,-0.06550352275371552,0.22073788940906525
1730559815270893300,9.753893310546875,9.843772888183594,-0.07776673883199692,0.2231307178735733
1730559815280923000,9.7639228515625,9.856036186218262,-0.06311069428920746,0.23030917346477509
1730559815290949600,9.77394970703125,9.846165657043457,-0.07537391036748886,0.22791635990142822
1730559815300978700,9.783978759765626,9.848857879638672,-0.07058826833963394,0.2183450609445572
1730559815311004000,9.79400390625,9.836594581604004,-0.06550352275371552,0.22552353143692017
1730559815321032700,9.80403271484375,9.838987350463867,-0.06819544732570648,0.21595224738121033
1730559815331069000,9.81406884765625,9.868000984191895,-0.06071787327528,0.22791635990142822
1730559815341098500,9.824098388671874,9.877572059631348,-0.07776673883199692,0.23030917346477509
1730559815351120600,9.83412060546875,9.858428955078125,-0.06071787327528,0.21595224738121033
1730559815361149400,9.8441494140625,9.863214492797852,-0.06819544732570648,0.22552353143692017
1730559815371173400,9.85417333984375,9.863214492797852,-0.07776673883199692,0.23270200192928314
1730559815381197600,9.864197509765624,9.848857879638672,-0.0729810893535614,0.22791635990142822
1730559815391226000,9.87422607421875,9.851250648498535,-0.0729810893535614,0.2183450609445572
1730559815401243400,9.884243408203124,9.848857879638672,-0.06071787327528,0.21595224738121033
1730559815411271000,9.89427099609375,9.831809043884277,-0.05593222752213478,0.22073788940906525
1730559815421308700,9.90430859375,9.860821723937988,-0.05114658549427986,0.21355941891670227
1730559815431337200,9.914337158203125,9.851250648498535,-0.06071787327528,0.2111666053533554
1730559815441369600,9.92436962890625,9.853643417358398,-0.05114658549427986,0.22073788940906525
1730559815451398700,9.934398681640625,9.858428955078125,-0.0487537607550621,0.23030917346477509
1730559815461431000,9.94443115234375,9.84138011932373,-0.07058826833963394,0.22073788940906525
1730559815471460400,9.95446044921875,9.84138011932373,-0.07537391036748886,0.21355941891670227
1730559815481484300,9.964484375,9.856036186218262,-0.08015955984592438,0.22073788940906525
1730559815491513000,9.97451318359375,9.858428955078125,-0.06311069428920746,0.23988047242164612
1730559815501535200,9.98453515625,9.853643417358398,-0.06071787327528,0.22073788940906525
1730559815511563300,9.994563232421875,9.846165657043457,-0.07537391036748886,0.21355941891670227
1730559815521597700,10.00459765625,9.853643417358398,-0.06550352275371552,0.23030917346477509
1730559815531626500,10.01462646484375,9.838987350463867,-0.06311069428920746,0.23270200192928314
1730559815541621500,10.02462158203125,9.863214492797852,-0.05353940650820732,0.22073788940906525
1730559815551646700,10.034646728515625,9.875179290771484,-0.06550352275371552,0.22073788940906525
1730559815561704000,10.044703857421876,9.853643417358398,-0.07537391036748886,0.21595224738121033
1730559815571732500,10.054732421875,9.858428955078125,-0.08733802288770676,0.22552353143692017
1730559815581760500,10.064760498046875,9.836594581604004,-0.06550352275371552,0.22552353143692017
1730559815591789000,10.0747890625,9.872786521911621,-0.07058826833963394,0.22073788940906525
1730559815601826600,10.08482666015625,9.856036186218262,-0.07776673883199692,0.23030917346477509
1730559815611856100,10.094856201171876,9.856036186218262,-0.05593222752213478,0.22552353143692017
1730559815621893600,10.1048935546875,9.848857879638672,-0.05832505226135254,0.2183450609445572
1730559815631923700,10.114923828125,9.838987350463867,-0.0487537607550621,0.22552353143692017
1730559815641944000,10.124944091796875,9.846165657043457,-0.05353940650820732,0.23030917346477509
1730559815651973000,10.13497314453125,9.860821723937988,-0.07537391036748886,0.22552353143692017
1730559815661995500,10.14499560546875,9.851250648498535,-0.07776673883199692,0.2231307178735733
1730559815672024000,10.155024169921875,9.856036186218262,-0.07058826833963394,0.20398813486099243
1730559815682044200,10.165044189453125,9.865608215332031,-0.08733802288770676,0.2183450609445572
1730559815692072000,10.175072021484375,9.863214492797852,-0.06550352275371552,0.23748764395713806
1730559815702115800,10.18511572265625,9.848857879638672,-0.05353940650820732,0.2231307178735733
1730559815712145200,10.195145263671876,9.853643417358398,-0.06819544732570648,0.22073788940906525
1730559815722158000,10.205157958984374,9.858428955078125,-0.07776673883199692,0.22073788940906525
1730559815732185900,10.215185791015625,9.848857879638672,-0.05593222752213478,0.23030917346477509
1730559815742234600,10.225234619140625,9.865608215332031,-0.05353940650820732,0.22791635990142822
1730559815752264400,10.235264404296874,9.846165657043457,-0.0729810893535614,0.2231307178735733
1730559815762295800,10.2452958984375,9.848857879638672,-0.06550352275371552,0.22552353143692017
1730559815772325600,10.25532568359375,9.853643417358398,-0.05593222752213478,0.23270200192928314
1730559815782331100,10.2653310546875,9.868000984191895,-0.06311069428920746,0.22073788940906525
1730559815792358700,10.275358642578125,9.860821723937988,-0.05832505226135254,0.22552353143692017
1730559815802377000,10.285376953125,9.865608215332031,-0.05593222752213478,0.22552353143692017
1730559815812403700,10.29540380859375,9.868000984191895,-0.05593222752213478,0.22791635990142822
1730559815822457600,10.30545751953125,9.851250648498535,-0.06311069428920746,0.2183450609445572
1730559815832487200,10.315487060546875,9.856036186218262,-0.05114658549427986,0.2183450609445572
1730559815842514700,10.3255146484375,9.858428955078125,-0.06819544732570648,0.2183450609445572
1730559815852543700,10.335543701171876,9.843772888183594,-0.0487537607550621,0.23270200192928314
1730559815862542800,10.34554296875,9.856036186218262,-0.06819544732570648,0.22073788940906525
1730559815872569000,10.355569091796875,9.858428955078125,-0.06550352275371552,0.2183450609445572
1730559815882617900,10.365617919921876,9.863214492797852,-0.07058826833963394,0.22791635990142822
1730559815892646400,10.375646484375,9.860821723937988,-0.0729810893535614,0.22552353143692017
1730559815902675700,10.38567578125,9.836594581604004,-0.08015955984592438,0.22073788940906525
1730559815912704000,10.3957041015625,9.858428955078125,-0.08733802288770676,0.22791635990142822
1730559815922735600,10.405735595703124,9.853643417358398,-0.08015955984592438,0.23270200192928314
1730559815932764700,10.4157646484375,9.831809043884277,-0.06819544732570648,0.22791635990142822
1730559815942800600,10.425800537109374,9.846165657043457,-0.06550352275371552,0.2231307178735733
1730559815952830200,10.435830322265625,9.84138011932373,-0.07537391036748886,0.2231307178735733
1730559815962850000,10.44585009765625,9.817452430725098,-0.07058826833963394,0.21595224738121033
1730559815972878600,10.455878662109376,9.858428955078125,-0.06071787327528,0.2111666053533554
1730559815982896000,10.465896240234375,9.868000984191895,-0.0729810893535614,0.2350948303937912
1730559815992923600,10.475923583984375,9.836594581604004,-0.05593222752213478,0.22791635990142822
1730559816002966300,10.48596630859375,9.838987350463867,-0.08015955984592438,0.22073788940906525
1730559816012995300,10.495995361328125,9.843772888183594,-0.08973085135221481,0.23030917346477509
1730559816023026400,10.5060263671875,9.843772888183594,-0.06311069428920746,0.2231307178735733
1730559816033055500,10.516055419921875,9.84138011932373,-0.06550352275371552,0.2231307178735733
1730559816043091000,10.526091064453125,9.838987350463867,-0.07058826833963394,0.22791635990142822
1730559816053120800,10.536120849609375,9.853643417358398,-0.07058826833963394,0.22552353143692017
1730559816063130600,10.546130615234375,9.853643417358398,-0.05353940650820732,0.22552353143692017
1730559816073158700,10.55615869140625,9.843772888183594,-0.05832505226135254,0.22791635990142822
1730559816083200800,10.56620068359375,9.843772888183594,-0.07537391036748886,0.23030917346477509
1730559816093230000,10.57622998046875,9.858428955078125,-0.05593222752213478,0.22073788940906525
1730559816103249000,10.586248779296875,9.865608215332031,-0.05353940650820732,0.23270200192928314
1730559816113277200,10.596277099609376,9.863214492797852,-0.06311069428920746,0.23030917346477509
1730559816123314000,10.60631396484375,9.851250648498535,-0.0729810893535614,0.2183450609445572
1730559816133343000,10.616343017578124,9.846165657043457,-0.06550352275371552,0.22552353143692017
1730559816143367400,10.626367431640626,9.838987350463867,-0.06550352275371552,0.22073788940906525
1730559816153396200,10.636396240234374,9.84138011932373,-0.07058826833963394,0.21595224738121033
1730559816163430400,10.646430419921876,9.858428955078125,-0.08015955984592438,0.23030917346477509
1730559816173459500,10.65645947265625,9.829416275024414,-0.046360939741134644,0.21355941891670227
1730559816183467800,10.6664677734375,9.870393753051758,-0.046360939741134644,0.22552353143692017
1730559816193494800,10.676494873046876,9.870393753051758,-0.07058826833963394,0.22073788940906525
1730559816203573800,10.68657373046875,9.851250648498535,-0.06071787327528,0.22073788940906525
1730559816213606100,10.696606201171875,9.848857879638672,-0.07058826833963394,0.2183450609445572
1730559816223594000,10.706593994140626,9.870393753051758,-0.06071787327528,0.22552353143692017
1730559816233621800,10.716621826171876,9.84138011932373,-0.05593222752213478,0.21355941891670227
1730559816243657000,10.726656982421876,9.846165657043457,-0.05832505226135254,0.22552353143692017
1730559816253685500,10.736685546875,9.872786521911621,-0.05114658549427986,0.23270200192928314
1730559816263708700,10.746708740234375,9.856036186218262,-0.07058826833963394,0.21595224738121033
1730559816273736700,10.75673681640625,9.860821723937988,-0.07776673883199692,0.22791635990142822
1730559816283754000,10.76675390625,9.863214492797852,-0.06550352275371552,0.2231307178735733
1730559816293781000,10.776781005859375,9.853643417358398,-0.06550352275371552,0.2111666053533554
1730559816303792000,10.786792236328125,9.863214492797852,-0.06819544732570648,0.22552353143692017
1730559816313817300,10.7968173828125,9.863214492797852,-0.05593222752213478,0.2231307178735733
1730559816323857000,10.80685693359375,9.856036186218262,-0.06311069428920746,0.22791635990142822
1730559816333883600,10.816883544921875,9.836594581604004,-0.07058826833963394,0.23030917346477509
1730559816343939600,10.826939697265624,9.848857879638672,-0.05832505226135254,0.22073788940906525
1730559816353969400,10.836969482421875,9.858428955078125,-0.05832505226135254,0.23030917346477509
1730559816363992600,10.84699267578125,9.875179290771484,-0.0729810893535614,0.23270200192928314
1730559816374021600,10.857021728515624,9.877572059631348,-0.07537391036748886,0.2231307178735733
1730559816384034300,10.867034423828125,9.853643417358398,-0.07058826833963394,0.2111666053533554
1730559816394061600,10.8770615234375,9.846165657043457,-0.08015955984592438,0.2111666053533554
1730559816404086500,10.88708642578125,9.846165657043457,-0.07058826833963394,0.22073788940906525
1730559816414113800,10.89711376953125,9.856036186218262,-0.06311069428920746,0.22791635990142822
1730559816424161300,10.907161376953125,9.851250648498535,-0.06071787327528,0.22552353143692017
1730559816434190600,10.917190673828125,9.856036186218262,-0.06550352275371552,0.2231307178735733
1730559816444232400,10.927232421875,9.851250648498535,-0.06071787327528,0.23030917346477509
1730559816454262800,10.9372626953125,9.851250648498535,-0.05114658549427986,0.22552353143692017
1730559816464267300,10.947267333984374,9.868000984191895,-0.05114658549427986,0.21355941891670227
1730559816474295300,10.95729541015625,9.860821723937988,-0.05593222752213478,0.22073788940906525
1730559816484324000,10.967323974609375,9.851250648498535,-0.05114658549427986,0.22791635990142822
1730559816494352100,10.97735205078125,9.853643417358398,-0.08015955984592438,0.22791635990142822
1730559816504367000,10.9873671875,9.868000984191895,-0.07058826833963394,0.23030917346477509
1730559816514393600,10.9973935546875,9.868000984191895,-0.06071787327528,0.23270200192928314
1730559816524450000,11.007449951171875,9.851250648498535,-0.05593222752213478,0.23270200192928314
1730559816534480000,11.01747998046875,9.858428955078125,-0.06819544732570648,0.23030917346477509
1730559816544511200,11.02751123046875,9.858428955078125,-0.08015955984592438,0.22552353143692017
1730559816554541000,11.037541015625,9.848857879638672,-0.041575293987989426,0.22791635990142822
1730559816564567000,11.047567138671875,9.848857879638672,-0.07776673883199692,0.2183450609445572
1730559816574596600,11.0575966796875,9.853643417358398,-0.06071787327528,0.23030917346477509
1730559816584627200,11.067627197265624,9.848857879638672,-0.06311069428920746,0.24466611444950104
1730559816594656800,11.07765673828125,9.848857879638672,-0.06819544732570648,0.22552353143692017
1730559816604635600,11.0876357421875,9.848857879638672,-0.07776673883199692,0.2231307178735733
1730559816614660000,11.09766015625,9.853643417358398,-0.07058826833963394,0.23030917346477509
1730559816624732700,11.107732666015625,9.863214492797852,-0.06311069428920746,0.22791635990142822
1730559816634762000,11.117761962890626,9.865608215332031,-0.08015955984592438,0.23748764395713806
1730559816644773600,11.127773681640624,9.868000984191895,-0.06071787327528,0.22073788940906525
1730559816654801200,11.13780126953125,9.863214492797852,-0.06550352275371552,0.2231307178735733
1730559816664844000,11.147843994140626,9.848857879638672,-0.06071787327528,0.22791635990142822
1730559816674873000,11.157873046875,9.84138011932373,-0.05832505226135254,0.22073788940906525
1730559816684899300,11.1678994140625,9.865608215332031,-0.07537391036748886,0.2231307178735733
1730559816694928100,11.17792822265625,9.858428955078125,-0.07537391036748886,0.23270200192928314
1730559816704952600,11.18795263671875,9.856036186218262,-0.05114658549427986,0.22073788940906525
1730559816714980900,11.19798095703125,9.858428955078125,-0.05593222752213478,0.2183450609445572
1730559816725002200,11.208002197265625,9.843772888183594,-0.06819544732570648,0.2183450609445572
1730559816735030000,11.218030029296875,9.868000984191895,-0.06311069428920746,0.22791635990142822
1730559816745069600,11.228069580078126,9.863214492797852,-0.05832505226135254,0.22791635990142822
1730559816755098400,11.238098388671874,9.860821723937988,-0.0487537607550621,0.22552353143692017
1730559816765095000,11.248094970703125,9.860821723937988,-0.06819544732570648,0.21595224738121033
1730559816775120400,11.258120361328125,9.848857879638672,-0.06071787327528,0.23030917346477509
1730559816785177300,11.26817724609375,9.846165657043457,-0.05832505226135254,0.22791635990142822
1730559816795206000,11.278205810546876,9.856036186218262,-0.06311069428920746,0.21595224738121033
1730559816805253000,11.288253173828124,9.848857879638672,-0.0729810893535614,0.21595224738121033
1730559816815283700,11.29828369140625,9.858428955078125,-0.0729810893535614,0.2111666053533554
1730559816825293800,11.3082939453125,9.846165657043457,-0.06071787327528,0.23030917346477509
1730559816835322400,11.318322265625,9.851250648498535,-0.07537391036748886,0.22791635990142822
1730559816845347800,11.328347900390625,9.846165657043457,-0.07058826833963394,0.23030917346477509
1730559816855376000,11.3383759765625,9.846165657043457,-0.06311069428920746,0.2183450609445572
1730559816865404200,11.348404052734375,9.853643417358398,-0.07058826833963394,0.22073788940906525
1730559816875432400,11.358432373046876,9.843772888183594,-0.06819544732570648,0.20877377688884735
1730559816885464600,11.368464599609375,9.846165657043457,-0.06311069428920746,0.22073788940906525
1730559816895493400,11.378493408203125,9.870393753051758,-0.05832505226135254,0.22073788940906525
1730559816905530400,11.3885302734375,9.853643417358398,-0.05593222752213478,0.21595224738121033
1730559816915560000,11.398559814453124,9.853643417358398,-0.06071787327528,0.2183450609445572
1730559816925583400,11.408583251953125,9.853643417358398,-0.0729810893535614,0.22073788940906525
1730559816935612400,11.4186123046875,9.848857879638672,-0.07776673883199692,0.23270200192928314
1730559816945641000,11.428640869140626,9.838987350463867,-0.06071787327528,0.23030917346477509
1730559816955669800,11.438669677734374,9.853643417358398,-0.06819544732570648,0.22791635990142822
1730559816965708500,11.44870849609375,9.856036186218262,-0.06550352275371552,0.2231307178735733
1730559816975738400,11.45873828125,9.860821723937988,-0.0487537607550621,0.22552353143692017
1730559816985762600,11.468762451171875,9.865608215332031,-0.0729810893535614,0.23270200192928314
1730559816995791600,11.47879150390625,9.872786521911621,-0.06819544732570648,0.2183450609445572
1730559817005821000,11.488821044921876,9.872786521911621,-0.03678964823484421,0.23270200192928314
1730559817015850200,11.498850341796874,9.851250648498535,-0.05832505226135254,0.23748764395713806
1730559817025851600,11.5088515625,9.863214492797852,-0.09212367236614227,0.23270200192928314
1730559817035878100,11.518878173828124,9.853643417358398,-0.05832505226135254,0.23030917346477509
1730559817045915100,11.5289150390625,9.83420181274414,-0.05832505226135254,0.22791635990142822
1730559817055942700,11.538942626953125,9.843772888183594,-0.08015955984592438,0.22552353143692017
1730559817065974500,11.548974609375,9.860821723937988,-0.05593222752213478,0.22552353143692017
1730559817076002600,11.55900244140625,9.860821723937988,-0.06550352275371552,0.2183450609445572
1730559817086044700,11.569044677734375,9.851250648498535,-0.0729810893535614,0.21595224738121033
1730559817096074000,11.579073974609376,9.870393753051758,-0.05353940650820732,0.22073788940906525
1730559817106104300,11.589104248046874,9.856036186218262,-0.07058826833963394,0.21595224738121033
1730559817116134000,11.5991337890625,9.848857879638672,-0.06819544732570648,0.22791635990142822
1730559817126158800,11.609158935546875,9.858428955078125,-0.06311069428920746,0.23748764395713806
1730559817136188000,11.61918798828125,9.853643417358398,-0.06819544732570648,0.22552353143692017
1730559817146204700,11.62920458984375,9.84138011932373,-0.06550352275371552,0.22073788940906525
1730559817156232400,11.639232421875,9.843772888183594,-0.0849452018737793,0.22791635990142822
1730559817166271200,11.649271240234375,9.853643417358398,-0.06071787327528,0.2350948303937912
1730559817176300000,11.659300048828126,9.846165657043457,-0.06550352275371552,0.23270200192928314
1730559817186332400,11.66933251953125,9.851250648498535,-0.0729810893535614,0.21595224738121033
1730559817196361500,11.679361572265625,9.858428955078125,-0.05114658549427986,0.20877377688884735
1730559817206391800,11.689391845703126,9.865608215332031,-0.05593222752213478,0.22073788940906525
1730559817216421000,11.699421142578124,9.853643417358398,-0.08733802288770676,0.22791635990142822
1730559817226444000,11.709444091796875,9.868000984191895,-0.05114658549427986,0.2111666053533554
1730559817236472600,11.71947265625,9.860821723937988,-0.06071787327528,0.2231307178735733
1730559817246491000,11.729490966796876,9.856036186218262,-0.05832505226135254,0.23748764395713806
1730559817256518700,11.7395185546875,9.853643417358398,-0.0729810893535614,0.23030917346477509
1730559817266568200,11.749568115234375,9.851250648498535,-0.06550352275371552,0.22073788940906525
1730559817276598000,11.759597900390625,9.860821723937988,-0.06550352275371552,0.23030917346477509
1730559817286591700,11.769591796875,9.858428955078125,-0.08255238085985184,0.22791635990142822
1730559817296618000,11.779617919921876,9.853643417358398,-0.07776673883199692,0.23030917346477509
1730559817306648300,11.7896484375,9.83420181274414,-0.07537391036748886,0.21595224738121033
1730559817316674800,11.7996748046875,9.860821723937988,-0.06550352275371552,0.23030917346477509
1730559817326729500,11.8097294921875,9.843772888183594,-0.06819544732570648,0.2231307178735733
1730559817336759000,11.819759033203125,9.846165657043457,-0.07776673883199692,0.22791635990142822
1730559817346780000,11.82977978515625,9.851250648498535,-0.0849452018737793,0.2183450609445572
1730559817356808400,11.839808349609376,9.84138011932373,-0.0729810893535614,0.2111666053533554
1730559817366848000,11.849847900390625,9.851250648498535,-0.03918246924877167,0.22073788940906525
1730559817376877800,11.8598779296875,9.870393753051758,-0.05593222752213478,0.22552353143692017
1730559817386901200,11.8699013671875,9.865608215332031,-0.08255238085985184,0.23270200192928314
1730559817396930300,11.879930419921875,9.858428955078125,-0.05832505226135254,0.22791635990142822
1730559817406957600,11.88995751953125,9.870393753051758,-0.0729810893535614,0.22791635990142822
1730559817416986400,11.899986328125,9.872786521911621,-0.08255238085985184,0.2183450609445572
1730559817427012400,11.910012451171875,9.863214492797852,-0.07776673883199692,0.23030917346477509
1730559817437041200,11.920041259765625,9.856036186218262,-0.07058826833963394,0.23030917346477509
1730559817447042300,11.930042236328125,9.856036186218262,-0.05832505226135254,0.22791635990142822
1730559817457068000,11.940068115234375,9.868000984191895,-0.05353940650820732,0.22552353143692017
1730559817467114000,11.950114013671875,9.856036186218262,-0.06550352275371552,0.2183450609445572
1730559817477141800,11.960141845703125,9.858428955078125,-0.06311069428920746,0.2183450609445572
1730559817487195600,11.970195556640626,9.860821723937988,-0.06311069428920746,0.2183450609445572
1730559817497226000,11.98022607421875,9.868000984191895,-0.0729810893535614,0.22073788940906525
1730559817507242000,11.990241943359376,9.863214492797852,-0.06071787327528,0.22791635990142822
1730559817517271000,12.00027099609375,9.853643417358398,-0.05593222752213478,0.2350948303937912
1730559817527297500,12.010297607421874,9.838987350463867,-0.06311069428920746,0.22791635990142822
1730559817537326300,12.020326416015624,9.83420181274414,-0.07776673883199692,0.22073788940906525
1730559817547346400,12.030346435546875,9.860821723937988,-0.08733802288770676,0.22552353143692017
1730559817557374500,12.04037451171875,9.846165657043457,-0.07537391036748886,0.22552353143692017
1730559817567415600,12.05041552734375,9.853643417358398,-0.06550352275371552,0.20877377688884735
1730559817577444600,12.060444580078125,9.853643417358398,-0.06550352275371552,0.2231307178735733
1730559817587476700,12.070476806640626,9.846165657043457,-0.07537391036748886,0.22073788940906525
1730559817597506300,12.08050634765625,9.856036186218262,-0.08255238085985184,0.22791635990142822
1730559817607528000,12.09052783203125,9.848857879638672,-0.0729810893535614,0.2350948303937912
1730559817617556500,12.100556396484375,9.853643417358398,-0.06071787327528,0.21355941891670227
1730559817627584500,12.11058447265625,9.863214492797852,-0.07058826833963394,0.22791635990142822
1730559817637613000,12.120613037109376,9.863214492797852,-0.07776673883199692,0.22552353143692017
1730559817647623000,12.130622802734376,9.848857879638672,-0.0729810893535614,0.22791635990142822
1730559817657649700,12.140649658203126,9.831809043884277,-0.07537391036748886,0.2231307178735733
1730559817667699500,12.150699462890625,9.846165657043457,-0.06550352275371552,0.21595224738121033
1730559817677728500,12.160728515625,9.851250648498535,-0.0849452018737793,0.22073788940906525
1730559817687755800,12.170755859375,9.836594581604004,-0.08015955984592438,0.22791635990142822
1730559817697784600,12.18078466796875,9.84138011932373,-0.06071787327528,0.2183450609445572
1730559817707805000,12.190804931640624,9.848857879638672,-0.06819544732570648,0.2231307178735733
1730559817717833000,12.2008330078125,9.868000984191895,-0.06311069428920746,0.22791635990142822
1730559817727841300,12.21084130859375,9.860821723937988,-0.05832505226135254,0.23748764395713806
1730559817737867300,12.2208671875,9.858428955078125,-0.05832505226135254,0.2183450609445572
1730559817747922700,12.230922607421874,9.858428955078125,-0.07537391036748886,0.2183450609445572
1730559817757951700,12.24095166015625,9.83420181274414,-0.05593222752213478,0.22073788940906525
1730559817767980800,12.250980712890625,9.853643417358398,-0.06071787327528,0.2183450609445572
1730559817778009900,12.261009765625,9.858428955078125,-0.06071787327528,0.2231307178735733
1730559817788041700,12.271041748046875,9.860821723937988,-0.0729810893535614,0.22073788940906525
1730559817798071000,12.281071044921875,9.848857879638672,-0.05114658549427986,0.21595224738121033
1730559817808095500,12.291095458984374,9.863214492797852,-0.07537391036748886,0.23270200192928314
1730559817818124300,12.301124267578125,9.856036186218262,-0.06550352275371552,0.2231307178735733
1730559817828155400,12.3111552734375,9.858428955078125,-0.08015955984592438,0.2111666053533554
1730559817838184400,12.321184326171876,9.879964828491211,-0.05832505226135254,0.22552353143692017
1730559817848203500,12.33120361328125,9.863214492797852,-0.0729810893535614,0.22073788940906525
1730559817858231600,12.3412314453125,9.843772888183594,-0.08015955984592438,0.22073788940906525
1730559817868266200,12.351266357421874,9.851250648498535,-0.0729810893535614,0.22073788940906525
1730559817878294800,12.361294677734374,9.853643417358398,-0.06819544732570648,0.2183450609445572
1730559817888330000,12.371330078125,9.846165657043457,-0.07058826833963394,0.22073788940906525
1730559817898359300,12.381359375,9.848857879638672,-0.07058826833963394,0.2231307178735733
1730559817908364300,12.3913642578125,9.858428955078125,-0.07058826833963394,0.2183450609445572
1730559817918391000,12.40139111328125,9.848857879638672,-0.06071787327528,0.2231307178735733
1730559817928424000,12.411423828125,9.860821723937988,-0.06311069428920746,0.2231307178735733
1730559817938451500,12.421451416015625,9.848857879638672,-0.06819544732570648,0.22791635990142822
1730559817948478500,12.431478515625,9.856036186218262,-0.07537391036748886,0.2231307178735733
1730559817958505700,12.441505615234375,9.860821723937988,-0.043968115001916885,0.2231307178735733
1730559817968543500,12.45154345703125,9.838987350463867,-0.07058826833963394,0.20877377688884735
1730559817978572000,12.461572021484375,9.851250648498535,-0.06819544732570648,0.21595224738121033
1730559817988578300,12.471578369140625,9.856036186218262,-0.07776673883199692,0.22073788940906525
1730559817998604500,12.4816044921875,9.846165657043457,-0.0849452018737793,0.2231307178735733
1730559818008654600,12.491654541015626,9.868000984191895,-0.07058826833963394,0.23030917346477509
1730559818018683400,12.501683349609374,9.848857879638672,-0.07058826833963394,0.2231307178735733
1730559818028710400,12.51171044921875,9.853643417358398,-0.06311069428920746,0.23030917346477509
1730559818038739000,12.521739013671874,9.848857879638672,-0.06071787327528,0.2231307178735733
1730559818048764400,12.531764404296876,9.884750366210938,-0.07776673883199692,0.2231307178735733
1730559818058792400,12.54179248046875,9.879964828491211,-0.05593222752213478,0.23030917346477509
1730559818068825600,12.55182568359375,9.846165657043457,-0.05353940650820732,0.22552353143692017
1730559818078854400,12.5618544921875,9.84138011932373,-0.07537391036748886,0.23748764395713806
1730559818088881200,12.571881103515626,9.858428955078125,-0.06819544732570648,0.2231307178735733
1730559818098909700,12.58190966796875,9.853643417358398,-0.06550352275371552,0.23270200192928314
1730559818108959500,12.59195947265625,9.84138011932373,-0.06550352275371552,0.2183450609445572
1730559818118978300,12.601978271484375,9.863214492797852,-0.05832505226135254,0.22791635990142822
1730559818129006800,12.6120068359375,9.863214492797852,-0.05593222752213478,0.22791635990142822
1730559818139035100,12.62203515625,9.853643417358398,-0.07058826833963394,0.22791635990142822
1730559818149059000,12.63205908203125,9.863214492797852,-0.0849452018737793,0.2231307178735733
1730559818159087400,12.64208740234375,9.851250648498535,-0.06550352275371552,0.21595224738121033
1730559818169120500,12.65212060546875,9.853643417358398,-0.06311069428920746,0.22552353143692017
1730559818179149300,12.6621494140625,9.856036186218262,-0.08255238085985184,0.21355941891670227
1730559818189179100,12.67217919921875,9.838987350463867,-0.06819544732570648,0.2231307178735733
1730559818199207200,12.682207275390626,9.863214492797852,-0.06819544732570648,0.2231307178735733
1730559818209243100,12.6922431640625,9.851250648498535,-0.06311069428920746,0.22073788940906525
1730559818219272700,12.702272705078125,9.868000984191895,-0.0729810893535614,0.2231307178735733
1730559818229294300,12.71229443359375,9.865608215332031,-0.07058826833963394,0.21355941891670227
1730559818239323100,12.7223232421875,9.851250648498535,-0.06311069428920746,0.21595224738121033
1730559818249323800,12.73232373046875,9.856036186218262,-0.07537391036748886,0.22073788940906525
1730559818259349800,12.742349853515625,9.860821723937988,-0.06311069428920746,0.23270200192928314
1730559818269411600,12.75241162109375,9.865608215332031,-0.05593222752213478,0.22791635990142822
1730559818279441200,12.762441162109376,9.851250648498535,-0.05593222752213478,0.22552353143692017
