time,seconds_elapsed,AccZ,AccY,AccX
1730559805643512600,0.1265126953125,0,0,0
1730559805653545500,0.13654541015625,0.08705902099609375,0.059906959533691406,-0.03263211250305176
1730559805663569000,0.14656884765625,0.2881898880004883,0.0011320114135742188,-0.025855302810668945
1730559805673570000,0.156570068359375,0.27260589599609375,0.012381553649902344,-0.04745525121688843
1730559805683593500,0.166593505859375,-0.03633308410644531,0.20438814163208008,-0.115772545337677
1730559805693665300,0.176665283203125,-0.22422170639038086,0.3056182861328125,-0.214345782995224
1730559805703704800,0.186704833984375,-0.20767593383789062,0.1820058822631836,-0.13726145029067993
1730559805713742000,0.1967421875,-0.19715547561645508,-0.07821941375732422,0.03483852744102478
1730559805723780900,0.20678076171875,-0.297544002532959,-0.2959914207458496,0.03357541561126709
1730559805733770500,0.2167705078125,-0.36008644104003906,-0.48425912857055664,-0.06571698188781738
1730559805743789600,0.22678955078125,-0.35366296768188477,-0.39632415771484375,0.07810279726982117
1730559805753844200,0.23684423828125,-0.3891482353210449,-0.06761026382446289,0.21062307059764862
1730559805763877600,0.246877685546875,-0.5175771713256836,0.12262535095214844,0.23648667335510254
1730559805773891300,0.256891357421875,-0.5108942985534668,0.07545900344848633,0.29883623123168945
1730559805783916800,0.266916748046875,-0.29906702041625977,-0.05090951919555664,0.2980059087276459
1730559805793955600,0.27695556640625,-0.0048122406005859375,-0.08892250061035156,0.1905461549758911
1730559805803986400,0.286986328125,0.21556615829467773,-0.07737874984741211,0.05651184916496277
1730559805814002400,0.29700244140625,0.2809152603149414,0.06774520874023438,-0.08985590934753418
1730559805824027400,0.30702734375,0.23960065841674805,0.13014698028564453,-0.19278189539909363
1730559805834059500,0.3170595703125,0.14594221115112305,0.15137910842895508,-0.11943206191062927
1730559805844087300,0.32708740234375,0.03897237777709961,0.11008691787719727,-0.026096433401107788
1730559805854145500,0.3371455078125,-0.14592504501342773,0.009606361389160156,-0.042184799909591675
1730559805864185600,0.347185546875,-0.26032114028930664,0.006705284118652344,-0.1145687997341156
1730559805874178600,0.357178466796875,-0.2230377197265625,0.18073558807373047,-0.0937955379486084
1730559805884199700,0.36719970703125,-0.19544315338134766,0.12633657455444336,0.027510136365890503
1730559805894232300,0.377232421875,-0.3474726676940918,-0.2357039451599121,0.11829516291618347
1730559805904258000,0.387258056640625,-0.5236363410949707,-0.3981351852416992,0.12755772471427917
1730559805914300000,0.3972998046875,-0.3974461555480957,-0.4239826202392578,0.05195942521095276
1730559805924332000,0.40733203125,-0.015334606170654297,-0.45061731338500977,0.21238920092582703
1730559805934331600,0.41733154296875,0.13144969940185547,-0.5040698051452637,0.5506666302680969
1730559805944350700,0.427350830078125,0.27065134048461914,-0.6156606674194336,0.7063708305358887
1730559805954421500,0.43742138671875,0.434175968170166,-0.7713737487792969,0.7851112484931946
1730559805964461300,0.44746142578125,0.4446597099304199,-0.7914972305297852,0.8071877956390381
1730559805974475000,0.45747509765625,0.15062379837036133,-0.6102938652038574,0.7229636907577515
1730559805984504300,0.46750439453125,-0.10256576538085938,-0.5305490493774414,0.800923764705658
1730559805994528800,0.47752880859375,-0.5345344543457031,-0.5366029739379883,1.146349310874939
1730559806004557600,0.4875576171875,-1.009903907775879,-0.38939571380615234,1.5249029397964478
1730559806014594300,0.49759423828125,-1.3191728591918945,-0.23559236526489258,1.7366385459899902
1730559806024623900,0.507623779296875,-1.3645830154418945,-0.29277801513671875,1.930387258529663
1730559806034651000,0.51765087890625,-1.1719598770141602,-0.3784971237182617,2.1143651008605957
1730559806044680200,0.52768017578125,-0.48211002349853516,-0.7274613380432129,1.9094488620758057
1730559806054701800,0.537701904296875,0.6652488708496094,-2.275437831878662,0.841769814491272
1730559806064730400,0.54773046875,0.6024994850158691,-1.1934771537780762,1.3445273637771606
1730559806074766300,0.557766357421875,0.7775859832763672,0.08588600158691406,2.5229766368865967
1730559806084795600,0.567795654296875,0.6179428100585938,-0.602076530456543,3.223644733428955
1730559806094820600,0.577820556640625,-0.3898916244506836,-2.238518238067627,3.009016275405884
1730559806104849400,0.587849365234375,-0.851738452911377,-1.8336436748504639,1.4651981592178345
1730559806114873300,0.597873291015625,-0.6122760772705078,-1.7032907009124756,1.503178358078003
1730559806124901600,0.607901611328125,-0.8734574317932129,-2.545809268951416,3.3697988986968994
1730559806134929200,0.61792919921875,-1.4739398956298828,-2.1938657760620117,3.6485111713409424
1730559806144957400,0.62795751953125,-1.5258407592773438,-0.9185566902160645,3.1993374824523926
1730559806154985000,0.63798486328125,-1.7748441696166992,-0.6163167953491211,2.871687889099121
1730559806165013000,0.648012939453125,-1.95017671585083,-0.5459527969360352,2.578087329864502
1730559806175023900,0.65802392578125,-1.889542579650879,-0.677891731262207,2.2546846866607666
1730559806185050000,0.668050048828125,-2.0272316932678223,-0.8823294639587402,1.9883103370666504
1730559806195104300,0.678104248046875,-2.442406177520752,-0.8348784446716309,1.861653447151184
1730559806205133600,0.688133544921875,-2.832716464996338,-0.5901315212249756,1.9063167572021484
1730559806215161300,0.698161376953125,-3.14837646484375,-0.4162578582763672,1.944740653038025
1730559806225190400,0.7081904296875,-3.213494300842285,-0.2641315460205078,1.9266600608825684
1730559806235218700,0.71821875,-2.8975305557250977,-0.1796095371246338,1.7860699892044067
1730559806245247700,0.728247802734375,-2.492231845855713,-0.017862558364868164,1.7678027153015137
1730559806255276800,0.73827685546875,-2.105010986328125,0.2381737232208252,1.7652382850646973
1730559806265305900,0.748305908203125,-1.5890579223632812,0.3814964294433594,1.6084414720535278
1730559806275327700,0.75832763671875,-0.7969660758972168,0.36698102951049805,1.3184328079223633
1730559806285356000,0.76835595703125,0.20888900756835938,0.6347763538360596,0.9608113765716553
1730559806295389000,0.778388916015625,1.453516960144043,1.267594337463379,0.6212401390075684
1730559806305417500,0.78841748046875,2.6103696823120117,1.897197961807251,0.28087592124938965
1730559806315444700,0.79844482421875,3.2723608016967773,2.1598968505859375,0.018545150756835938
1730559806325473300,0.808473388671875,3.2513179779052734,2.010897159576416,0.05915045738220215
1730559806335497200,0.818497314453125,2.946756362915039,1.9120283126831055,0.29415464401245117
1730559806345525500,0.828525390625,2.893444061279297,2.254577159881592,-0.03444242477416992
1730559806355529700,0.83852978515625,2.3712329864501953,2.594467878341675,-0.5123651027679443
1730559806365555700,0.8485556640625,1.961461067199707,2.087489128112793,-0.3409597873687744
1730559806375620000,0.8586201171875,1.9479446411132812,1.1773386001586914,-0.26221585273742676
1730559806385649700,0.868649658203125,2.2616829872131348,0.6507611274719238,-1.0071771144866943
1730559806395674600,0.878674560546875,3.017334461212158,0.1277906894683838,-2.294684648513794
1730559806405704000,0.888703857421875,3.9901657104492188,-0.560753345489502,-3.7407658100128174
1730559806415729400,0.8987294921875,5.142857074737549,-1.1530712842941284,-5.138065338134766
1730559806425758200,0.90875830078125,6.288726806640625,-1.2249252796173096,-6.193234920501709
1730559806435758800,0.9187587890625,6.9287428855896,-1.0536167621612549,-6.7708353996276855
1730559806445784800,0.928784912109375,7.157259941101074,-0.8964763283729553,-6.933123588562012
1730559806455843300,0.93884326171875,6.417157173156738,-0.47812551259994507,-6.3212690353393555
1730559806465872600,0.94887255859375,5.213029861450195,0.0514066219329834,-5.168731212615967
1730559806475905500,0.958905517578125,3.9036903381347656,0.41359949111938477,-4.039858818054199
1730559806485935000,0.96893505859375,2.4957122802734375,0.5425412654876709,-2.995818614959717
1730559806495958300,0.978958251953125,1.3439903259277344,0.4226757287979126,-2.3036704063415527
1730559806505987000,0.988987060546875,0.7111501693725586,-0.06352853775024414,-2.252285957336426
1730559806516013300,0.999013427734375,0.7510919570922852,-0.6911945343017578,-2.625545024871826
1730559806526041900,1.009041748046875,1.4283380508422852,-1.1279489994049072,-3.219160556793213
1730559806536067000,1.019067138671875,2.5009021759033203,-1.340063214302063,-4.05856990814209
1730559806546095400,1.029095458984375,3.739996910095215,-1.2247414588928223,-4.422543525695801
1730559806556126200,1.039126220703125,4.59429931640625,-0.9983305931091309,-3.9155025482177734
1730559806566154800,1.04915478515625,4.862968444824219,-0.5017894506454468,-3.2263336181640625
1730559806576194600,1.059194580078125,4.521468162536621,0.11537575721740723,-2.2664401531219482
1730559806586224000,1.06922412109375,3.664443016052246,0.6441550254821777,-1.0345726013183594
1730559806596245000,1.079244873046875,2.5138959884643555,0.5250855684280396,0.15784120559692383
1730559806606273800,1.089273681640625,1.4163150787353516,0.0011025816202163696,0.7824954986572266
1730559806616272000,1.09927197265625,0.6433463096618652,-0.26943960785865784,0.5758833885192871
1730559806626297600,1.109297607421875,0.3506808280944824,-0.4848672151565552,0.20767784118652344
1730559806636358000,1.11935791015625,0.29317188262939453,-0.7828105092048645,-0.03930330276489258
1730559806646387200,1.12938720703125,0.6040167808532715,-1.018441915512085,-0.23663663864135742
1730559806656374800,1.139374755859375,1.3724374771118164,-1.2365795373916626,-0.41242361068725586
1730559806666399700,1.149399658203125,2.213797092437744,-1.1786189079284668,-0.5574522018432617
1730559806676457200,1.159457275390625,2.6865415573120117,-0.7585341334342957,-0.6616153717041016
1730559806686485500,1.169485595703125,2.7435102462768555,-0.42116767168045044,-0.6727504730224609
1730559806696534300,1.1795341796875,2.343444347381592,-0.22845491766929626,-0.4340701103210449
1730559806706564600,1.189564697265625,10.120655059814453,-1.7700181007385254,9.862001419067383
1730559806716539100,1.1995390625,2.656373977661133,3.3575873374938965,-1.7887754440307617
1730559806726564000,1.209564208984375,-2.9277091026306152,2.4378113746643066,-2.534013509750366
1730559806736644400,1.219644287109375,0.23306512832641602,-0.14630261063575745,1.0007710456848145
1730559806746674700,1.2296748046875,-0.23822402954101562,0.6009756922721863,0.29201459884643555
1730559806756699100,1.23969921875,-1.3682069778442383,1.7200965881347656,-0.8293938636779785
1730559806766729000,1.24972900390625,-0.7435016632080078,0.42229393124580383,-0.39051246643066406
1730559806776739600,1.259739501953125,-0.8776068687438965,-1.0517314672470093,-0.07139968872070312
1730559806786767600,1.269767578125,-1.0366501808166504,-2.5602736473083496,0.680748462677002
1730559806796810500,1.279810546875,-1.7111425399780273,-4.009613990783691,1.431441307067871
1730559806806813000,1.28981298828125,-3.5996036529541016,-2.6487367153167725,0.22390413284301758
1730559806816842200,1.29984228515625,-4.077112197875977,-1.2977659702301025,-0.7178792953491211
1730559806826884000,1.309884033203125,-3.414151191711426,-1.2345364093780518,-0.5793342590332031
1730559806836879000,1.319879150390625,-1.302177906036377,-1.4372342824935913,-0.05424356460571289
1730559806846909700,1.32990966796875,2.7993650436401367,-1.8308993577957153,1.292677879333496
1730559806856984600,1.339984619140625,5.241580009460449,-1.9691600799560547,1.8862736225128174
1730559806867022600,1.350022705078125,5.315558433532715,-2.0900938510894775,2.473372459411621
1730559806877057000,1.36005712890625,2.712224006652832,-2.207071304321289,2.0655126571655273
1730559806887069000,1.37006884765625,-0.7831459045410156,-1.4269503355026245,0.3841547966003418
1730559806897101000,1.38010107421875,-1.4671173095703125,-0.24062377214431763,0.19234251976013184
1730559806907110000,1.39010986328125,-1.5317378044128418,0.48724085092544556,0.4403393268585205
1730559806917139700,1.4001396484375,-2.195732593536377,1.0047147274017334,0.19056344032287598
1730559806927164200,1.4101640625,-3.3683972358703613,1.4571576118469238,-0.08974814414978027
1730559806937193700,1.42019384765625,-1.5198254585266113,2.0016112327575684,-0.01853799819946289
1730559806947216600,1.430216552734375,9.1879243850708,3.058727741241455,-2.550187349319458
1730559806957245400,1.440245361328125,9.304449081420898,1.4181125164031982,-0.9360548853874207
1730559806967279000,1.450279052734375,-2.1198253631591797,0.01509597897529602,0.4430427551269531
1730559806977308400,1.460308349609375,-4.720078468322754,0.05345045030117035,-0.9992750883102417
1730559806987330800,1.470330810546875,-4.9626054763793945,-0.04309919476509094,-0.9360671639442444
1730559806997359400,1.480359375,-5.197728633880615,-0.2749257981777191,-0.39624619483947754
1730559807007389200,1.49038916015625,3.817157745361328,-1.0970630645751953,2.0397424697875977
1730559807017417700,1.500417724609375,4.754438400268555,-0.4986652731895447,-0.48299407958984375
1730559807027448600,1.510448486328125,-3.9845452308654785,-0.4212203025817871,-0.24295079708099365
1730559807037477400,1.520477294921875,-6.5655107498168945,-0.3626290559768677,0.6234161257743835
1730559807047515400,1.530515380859375,22.801021575927734,-0.10601722449064255,-0.8686848878860474
1730559807057545000,1.540544921875,-7.430973052978516,0.7275334596633911,-0.9688663482666016
1730559807067554000,1.550553955078125,-10.871649742126465,0.0869145616889,-0.1345045268535614
1730559807077581800,1.560581787109375,11.979636192321777,-0.43121182918548584,-0.7100843787193298
1730559807087619000,1.570619140625,-3.3106489181518555,0.0466359406709671,0.7411977052688599
1730559807097647600,1.580647705078125,1.1633243560791016,-0.01835665851831436,-0.3259388506412506
1730559807107673600,1.590673583984375,-0.3724174499511719,0.10642296075820923,-0.2880329489707947
1730559807117702000,1.600701904296875,0.05662345886230469,-0.01121252030134201,0.10026732087135315
1730559807127733800,1.610733642578125,0.12276840209960938,0.002318456768989563,-0.07091929018497467
1730559807137762600,1.620762451171875,-0.05663490295410156,0.04839282110333443,-0.09043219685554504
1730559807147806200,1.63080615234375,0.04848289489746094,0.01043245941400528,-0.041115954518318176
1730559807157836300,1.640836181640625,0.048145294189453125,0.014930486679077148,-0.06877604126930237
1730559807167853000,1.65085302734375,-0.05927848815917969,0.009932786226272583,-0.0606658011674881
1730559807177881900,1.6608818359375,0.09817790985107422,0.007508769631385803,-0.06249415874481201
1730559807187920400,1.67092041015625,-0.0024242401123046875,0.0286339670419693,-0.05474242568016052
1730559807197950200,1.6809501953125,-0.01907634735107422,-0.000040143728256225586,-0.039848923683166504
1730559807207976200,1.69097607421875,0.047687530517578125,0.007012449204921722,-0.034730494022369385
1730559807218005800,1.701005859375,0.03071880340576172,0.004552975296974182,-0.04387520253658295
1730559807228007200,1.711007080078125,0.03528022766113281,0.009306997060775757,-0.04815034568309784
1730559807238034000,1.721033935546875,-0.0006551742553710938,0.006730556488037109,-0.06430363655090332
1730559807248087600,1.731087646484375,0.011250495910644531,-0.010065719485282898,-0.05194944143295288
1730559807258116900,1.741116943359375,0.03260517120361328,0.00651925802230835,-0.06110005080699921
1730559807268143400,1.751143310546875,0.018115997314453125,0.0017858892679214478,-0.06294956803321838
1730559807278172400,1.76117236328125,0.010860443115234375,0.011156424880027771,-0.06251415610313416
1730559807288181800,1.771181640625,0.010796546936035156,0.027612358331680298,-0.05747869610786438
1730559807298208800,1.781208740234375,0.02740192413330078,0.020263705402612686,-0.04295158386230469
1730559807308259800,1.791259765625,0.02485370635986328,0.02248576283454895,-0.04020918905735016
1730559807318289400,1.801289306640625,-0.0038747787475585938,0.005697809159755707,-0.046905264258384705
1730559807328315100,1.811315185546875,0.024723052978515625,0.010492116212844849,-0.051339223980903625
1730559807338344200,1.82134423828125,0.038867950439453125,0.003200531005859375,-0.036852747201919556
1730559807348370200,1.8313701171875,0.0029191970825195312,0.005688093602657318,-0.050925180315971375
1730559807358399000,1.84139892578125,0.0005168914794921875,0.01292312890291214,-0.055234938859939575
1730559807368422000,1.851421875,0.014803886413574219,0.0032884329557418823,-0.047770142555236816
1730559807378450200,1.8614501953125,0.03615283966064453,-0.008671104907989502,-0.045060619711875916
1730559807388466400,1.871466552734375,0.019269943237304688,0.005528688430786133,-0.042317166924476624
1730559807398493400,1.881493408203125,0.021539688110351562,0.014989994466304779,-0.03482639789581299
1730559807408542200,1.891542236328125,0.02379894256591797,0.012537956237792969,-0.048869743943214417
1730559807418571300,1.9015712890625,0.021286964416503906,0.012583814561367035,-0.03917309641838074
1730559807428600600,1.9116005859375,0.011636734008789062,0.005380325019359589,-0.02217598259449005
1730559807438629600,1.921629638671875,0.0044231414794921875,0.010026253759860992,-0.026765167713165283
1730559807448656000,1.93165576171875,0.02584075927734375,0.009876653552055359,-0.04816414415836334
1730559807458685000,1.941684814453125,0.030466079711914062,0.01703626662492752,-0.05271714925765991
1730559807468710400,1.95171044921875,0.013624191284179688,0.014576755464076996,-0.05724641680717468
1730559807478739000,1.961739013671875,0.004021644592285156,0.002654820680618286,-0.04978771507740021
1730559807488766200,1.97176611328125,0.027826309204101562,0.009857811033725739,-0.04237078130245209
1730559807498794800,1.981794677734375,0.02767467498779297,0.007384501397609711,-0.03732612729072571
1730559807508828200,1.991828125,0.027525901794433594,0.012334257364273071,-0.04893602430820465
1730559807518857200,2.001857177734375,-0.005977630615234375,0.03144989535212517,-0.04867641627788544
1730559807528887300,2.01188720703125,0.013113021850585938,0.012082792818546295,-0.029303401708602905
1730559807538916400,2.021916259765625,0.022574424743652344,0.0023990198969841003,-0.03624582290649414
1730559807548941300,2.03194140625,0.022457122802734375,0.009449571371078491,-0.036107778549194336
1730559807558970000,2.04197021484375,0.0008897781372070312,-0.004886001348495483,-0.042965710163116455
1730559807569001500,2.05200146484375,0.012798309326171875,-0.0025662407279014587,-0.04745720326900482
1730559807579030500,2.062030517578125,0.017293930053710938,0.0045073628425598145,-0.04420752823352814
1730559807589036000,2.0720361328125,0.02171802520751953,0.018531259149312973,-0.03174428641796112
1730559807599062800,2.082062744140625,0.014286041259765625,0.01583094149827957,-0.052312254905700684
1730559807609112300,2.0921123046875,0.016404151916503906,0.02034313976764679,-0.034952446818351746
1730559807619141400,2.102141357421875,-0.000354766845703125,0.005838833749294281,-0.03687967360019684
1730559807629172200,2.112172119140625,0.009076118469238281,0.022300783544778824,-0.04809407889842987
1730559807639201300,2.122201171875,0.018349647521972656,0.04314779117703438,-0.030906379222869873
1730559807649229600,2.1322294921875,0.025110244750976562,0.009314008057117462,-0.035101935267448425
1730559807659258600,2.142258544921875,0.02469348907470703,-0.0027053803205490112,-0.03462021052837372
1730559807669281800,2.15228173828125,0.012505531311035156,0.0066757649183273315,-0.0388575941324234
1730559807679310300,2.162310302734375,0.005240440368652344,0.01139620691537857,-0.03616458177566528
1730559807689319200,2.172319091796875,0.005153656005859375,0.018341705203056335,-0.04733958840370178
1730559807699345700,2.182345703125,0.014487266540527344,0.006219513714313507,-0.029959216713905334
1730559807709398500,2.1923984375,0.014246940612792969,0.006030671298503876,-0.03422239422798157
1730559807719427600,2.202427490234375,0.014008522033691406,0.005789436399936676,-0.03600825369358063
1730559807729456000,2.2124560546875,0.0019960403442382812,-0.0011524781584739685,-0.030542507767677307
1730559807739485200,2.222485107421875,0.01609325408935547,0.006056658923625946,-0.0228106826543808
1730559807749489700,2.23248974609375,0.013463973999023438,0.0035709068179130554,-0.02693362534046173
1730559807759516400,2.242516357421875,0.008527755737304688,0.003476768732070923,-0.040618106722831726
1730559807769560000,2.25256005859375,0.013095855712890625,0.012859545648097992,-0.03282211720943451
1730559807779588400,2.26258837890625,0.010519981384277344,0.003346078097820282,-0.025104030966758728
1730559807789607400,2.272607421875,-0.0037889480590820312,0.01037539541721344,-0.02704070508480072
1730559807799635000,2.282635009765625,0.010410308837890625,-0.018206462264060974,-0.026746228337287903
1730559807809684000,2.29268408203125,0.014951705932617188,-0.003756418824195862,-0.026457026600837708
1730559807819713500,2.302713623046875,0.031192779541015625,0.005798593163490295,-0.026015594601631165
1730559807829739300,2.3127392578125,0.01418304443359375,0.010326720774173737,-0.020870745182037354
1730559807839768600,2.3227685546875,0.01158905029296875,0.012578971683979034,-0.02277490496635437
1730559807849796600,2.332796630859375,0.013751029968261719,0.0030170977115631104,-0.02705426514148712
1730559807859825700,2.34282568359375,0.013521194458007812,-0.006544522941112518,-0.028959602117538452
1730559807869858000,2.352858154296875,0.010942459106445312,-0.006422296166419983,-0.030885353684425354
1730559807879887600,2.3628876953125,0.001338958740234375,0.015058469027280807,-0.02565896511077881
1730559807889925000,2.372925048828125,-0.00103759765625,0.0032524913549423218,-0.020520448684692383
1730559807899955500,2.38295556640625,0.015467643737792969,-0.00134190171957016,-0.024786412715911865
1730559807909965300,2.39296533203125,0.010494232177734375,0.026861082762479782,-0.021862730383872986
1730559807919993600,2.40299365234375,0.010317802429199219,0.005177214741706848,-0.016735747456550598
1730559807930003200,2.413003173828125,0.0077915191650390625,-0.004366032779216766,-0.01415279507637024
1730559807940029400,2.423029541015625,0.012375831604003906,0.021684221923351288,-0.02108776569366455
1730559807950080300,2.433080322265625,-0.0019655227661132812,0.004796415567398071,-0.018329530954360962
1730559807960109000,2.443109130859375,0.007487297058105469,-0.00003068894147872925,-0.020328179001808167
1730559807970134500,2.453134521484375,0.0214996337890625,0.00003982335329055786,-0.02480350434780121
1730559807980163000,2.4631630859375,0.021144866943359375,0.0119362473487854,-0.02684946358203888
1730559807990221600,2.4732216796875,0.016081809997558594,-0.000024802982807159424,-0.03116530179977417
1730559808000253000,2.4832529296875,0.015813827514648438,-0.007231943309307098,-0.028342753648757935
1730559808010229200,2.493229248046875,0.0273284912109375,0.0023792684078216553,-0.01844799518585205
1730559808020255200,2.503255126953125,0.01980876922607422,-0.002252355217933655,-0.015836969017982483
1730559808030311700,2.513311767578125,0.0029859542846679688,0.01193566620349884,-0.01311357319355011
1730559808040340700,2.5233408203125,-0.001773834228515625,0.020970270037651062,-0.022368595004081726
1730559808050359600,2.533359619140625,0.024169921875,0.008856065571308136,-0.012729644775390625
1730559808060387600,2.5433876953125,0.009634017944335938,0.00631432980298996,-0.01722969114780426
1730559808070425300,2.55342529296875,0.011830329895019531,0.015595316886901855,-0.016994625329971313
1730559808080454400,2.563454345703125,0.016344070434570312,-0.0057973116636276245,-0.019015491008758545
1730559808090496500,2.57349658203125,-0.000415802001953125,-0.00092325359582901,-0.028173372149467468
1730559808100526800,2.58352685546875,0.011369705200195312,-0.007960140705108643,-0.030111834406852722
1730559808110541600,2.59354150390625,0.011178970336914062,-0.0031018927693367004,-0.020136669278144836
1730559808120564000,2.60356396484375,-0.0054950714111328125,-0.0006259456276893616,-0.010378673672676086
1730559808130594300,2.61359423828125,0.008731842041015625,0.0066789910197257996,-0.019626781344413757
1730559808140621300,2.623621337890625,0.006226539611816406,0.006534121930599213,-0.021499544382095337
1730559808150651100,2.633651123046875,0.0014085769653320312,0.00879773497581482,-0.02103760838508606
1730559808160691700,2.643691650390625,0.015522956848144531,0.020392879843711853,-0.023198306560516357
1730559808170722800,2.653722900390625,0.0058422088623046875,0.010594628751277924,-0.027574867010116577
1730559808180720400,2.663720458984375,0.008100509643554688,0.012635711580514908,-0.020100101828575134
1730559808190748200,2.673748046875,0.0032520294189453125,0.0027054771780967712,-0.017410576343536377
1730559808200778500,2.683778564453125,0.017335891723632812,0.012103337794542313,-0.03140798211097717
1730559808210806500,2.693806640625,-0.015928268432617188,-0.018648460507392883,-0.028683051466941833
1730559808220837600,2.703837646484375,0.007895469665527344,0.0029854625463485718,-0.009411334991455078
1730559808230865700,2.71386572265625,0.010119438171386719,0.026505909860134125,-0.006899580359458923
1730559808240892700,2.723892578125,-0.0018281936645507812,0.009588338434696198,-0.009089440107345581
1730559808250921000,2.7339208984375,0.0029134750366210938,-0.004585713148117065,-0.018360570073127747
1730559808260958000,2.7439580078125,-0.008917808532714844,0.00011395663022994995,-0.003765985369682312
1730559808270987000,2.753987060546875,-0.008771896362304688,-0.0023350566625595093,-0.020090147852897644
1730559808280989000,2.763989013671875,-0.003918647766113281,-0.004736877977848053,-0.010177701711654663
1730559808291015200,2.77401513671875,0.00556182861328125,0.004727073013782501,-0.012105569243431091
1730559808301081000,2.7840810546875,0.010180473327636719,0.002304762601852417,-0.009549662470817566
1730559808311111400,2.794111328125,0.0005922317504882812,-0.002328023314476013,-0.007191270589828491
1730559808321118200,2.8041181640625,0.007648468017578125,0.004794366657733917,-0.023508727550506592
1730559808331146200,2.814146240234375,0.014591217041015625,-0.004639185965061188,-0.011442512273788452
1730559808341177300,2.82417724609375,0.016707420349121094,-0.013964824378490448,-0.0043396055698394775
1730559808351205600,2.83420556640625,0.01643085479736328,0.007742598652839661,-0.0019120126962661743
1730559808361246000,2.844245849609375,0.0020227432250976562,0.0076292529702186584,-0.01601390540599823
1730559808371275500,2.854275634765625,0.009057044982910156,0.019192099571228027,-0.015799090266227722
1730559808381287200,2.864287109375,-0.0052280426025390625,0.009362220764160156,-0.015536084771156311
1730559808391315000,2.87431494140625,0.013700485229492188,-0.0049633607268333435,-0.01512216031551361
1730559808401356300,2.884356201171875,0.013469696044921875,-0.00010439008474349976,-0.017071232199668884
1730559808411385300,2.89438525390625,0.006176948547363281,-0.0024449750781059265,-0.009669259190559387
1730559808421419000,2.9044189453125,-0.0009946823120117188,-0.009608238935470581,-0.018878161907196045
1730559808431448600,2.914448486328125,0.0013780593872070312,0.002500772476196289,-0.011445343494415283
1730559808441480200,2.924480224609375,0.00606536865234375,-0.0020798146724700928,0.007693633437156677
1730559808451510000,2.934510009765625,-0.0010986328125,0.004830129444599152,-0.009131044149398804
1730559808461543700,2.944543701171875,0.015413284301757812,0.00000356137752532959,-0.011489763855934143
1730559808471573800,2.95457373046875,0.017510414123535156,0.011797044426202774,-0.004180058836936951
1730559808481593300,2.96459326171875,0.005440711975097656,0.01156555488705635,-0.008821487426757812
1730559808491622400,2.974622314453125,0.0029973983764648438,0.01845519244670868,-0.018200621008872986
1730559808501627600,2.984627685546875,0.007658958435058594,0.004131890833377838,-0.010779574513435364
1730559808511654400,2.994654296875,0.0075321197509765625,-0.0052942559123039246,-0.005889818072319031
1730559808521708000,3.0047080078125,0.0003414154052734375,-0.014665722846984863,-0.010607287287712097
1730559808531737300,3.0147373046875,0.014468193054199219,-0.0003227517008781433,0.0037547796964645386
1730559808541740000,3.024739990234375,0.0071582794189453125,-0.0004566758871078491,0.006099119782447815
1730559808551766500,3.0347666015625,0.009395599365234375,0.01364707201719284,-0.015255153179168701
1730559808561821000,3.044821044921875,0.016303062438964844,0.008831612765789032,-0.007829546928405762
1730559808571850500,3.0548505859375,-0.0051670074462890625,-0.0006656274199485779,-0.012409046292304993
1730559808581874400,3.06487451171875,0.006699562072753906,0.006479598581790924,-0.00995047390460968
1730559808591903200,3.0749033203125,-0.007549285888671875,-0.003035031259059906,0.002148270606994629
1730559808601918000,3.08491796875,-0.00742340087890625,-0.005378492176532745,-0.0025997161865234375
1730559808611945500,3.094945556640625,0.0021228790283203125,0.006503485143184662,-0.004964426159858704
1730559808621995800,3.104995849609375,0.009151458740234375,0.01342802494764328,0.004644826054573059
1730559808632025600,3.115025634765625,0.0019330978393554688,-0.00321255624294281,-0.016631603240966797
1730559808642050800,3.12505078125,0.011324882507324219,-0.007855705916881561,-0.014051288366317749
1730559808652080000,3.135080078125,0.0017137527465820312,-0.0006965622305870056,-0.006751418113708496
1730559808662085000,3.145085205078125,0.0016851425170898438,-0.0007257610559463501,-0.008996233344078064
1730559808672111900,3.15511181640625,-0.0006952285766601562,0.0042226240038871765,-0.0042382776737213135
1730559808682165500,3.16516552734375,0.015801429748535156,0.011183951050043106,-0.006367415189743042
1730559808692195000,3.175195068359375,-0.005661964416503906,0.006099678575992584,-0.018038004636764526
1730559808702203000,3.185202880859375,0.0062084197998046875,0.003661632537841797,-0.017633244395256042
1730559808712230100,3.195230224609375,0.008458137512207031,0.0013112649321556091,-0.003051251173019409
1730559808722277600,3.205277587890625,-0.0034627914428710938,-0.019893892109394073,-0.000541001558303833
1730559808732307000,3.215306884765625,-0.0034036636352539062,-0.0054120346903800964,-0.0029393136501312256
1730559808742336300,3.225336181640625,-0.010416030883789062,0.0015039891004562378,-0.0004825294017791748
1730559808752365800,3.23536572265625,-0.007887840270996094,0.0038501471281051636,0.004288136959075928
1730559808762392600,3.245392578125,-0.005401611328125,-0.0032121464610099792,-0.007509380578994751
1730559808772421600,3.255421630859375,-0.005314826965332031,0.011041086167097092,-0.01194070279598236
1730559808782448400,3.265448486328125,-0.002872467041015625,0.0038577616214752197,0.0024432241916656494
1730559808792477200,3.275477294921875,0.008955001831054688,0.0014523491263389587,0.00235004723072052
1730559808802495500,3.28549560546875,-0.0076847076416015625,-0.005572408437728882,-0.02114209532737732
1730559808812523500,3.2955234375,0.0018625259399414062,0.006259843707084656,0.0005129724740982056
1730559808822562300,3.305562255859375,0.01596546173095703,0.01083049550652504,-0.0019033104181289673
1730559808832591400,3.31559130859375,-0.0055027008056640625,0.008207671344280243,-0.00647909939289093
1730559808842619000,3.325618896484375,-0.007767677307128906,0.005626201629638672,-0.00872737169265747
1730559808852647700,3.335647705078125,-0.0052814483642578125,-0.006232164800167084,-0.01805703341960907
1730559808862659800,3.345659912109375,-0.00048160552978515625,0.008125349879264832,-0.022467181086540222
1730559808872686800,3.355686767578125,0.0018815994262695312,0.017431393265724182,-0.012617886066436768
1730559808882734300,3.365734375,-0.0028629302978515625,0.019408348947763443,-0.00528930127620697
1730559808892763400,3.375763427734375,0.0018968582153320312,-0.0019984394311904907,-0.007557779550552368
1730559808902768400,3.385768310546875,0.011286735534667969,-0.0018955320119857788,0.009109273552894592
1730559808912795100,3.395795166015625,0.011097908020019531,0.002758122980594635,-0.005176663398742676
1730559808922848000,3.405847900390625,-0.0055751800537109375,0.0145033560693264,-0.00749891996383667
1730559808932877300,3.415877197265625,0.0015802383422851562,0.002398170530796051,0.006915271282196045
1730559808942903800,3.42590380859375,-0.000804901123046875,0.009495850652456284,-0.000110626220703125
1730559808952932900,3.435932861328125,-0.017279624938964844,-0.004728436470031738,0.00695762038230896
1730559808962964700,3.44596484375,0.008917808532714844,-0.007091991603374481,-0.000173225998878479
1730559808972994300,3.455994384765625,-0.0006561279296875,-0.020986847579479218,-0.009437233209609985
1730559808983018800,3.466018798828125,0.001712799072265625,-0.015960879623889923,-0.0046722739934921265
1730559808993047600,3.476047607421875,-0.01716136932373047,0.012378193438053131,0.007182419300079346
1730559809003057000,3.486056884765625,0.009034156799316406,0.0027675405144691467,-0.014033704996109009
1730559809013083600,3.496083740234375,0.0135955810546875,0.021685194224119186,-0.002022266387939453
1730559809023130000,3.506130126953125,0.011014938354492188,0.016575239598751068,-0.002092987298965454
1730559809033159000,3.516158935546875,0.0037641525268554688,0.03982093185186386,-0.002057701349258423
1730559809043189800,3.526189697265625,0.008411407470703125,0.055764339864254,-0.004276067018508911
1730559809053218800,3.53621875,0.0035600662231445312,0.03349386528134346,-0.016035139560699463
1730559809063233500,3.546233642578125,0.008210182189941406,0.004583254456520081,-0.01336023211479187
1730559809073269500,3.55626953125,0.0033617019653320312,-0.02604464441537857,-0.010781288146972656
1730559809083297000,3.566297119140625,-0.0037593841552734375,-0.05626685917377472,0.010495364665985107
1730559809093331200,3.576331298828125,-0.010764122009277344,-0.0694987028837204,0.00801636278629303
1730559809103359200,3.586359130859375,0.024749755859375,-0.061359256505966187,-0.001590922474861145
1730559809113390000,3.59639013671875,0.024338722229003906,-0.03906664252281189,0.005450934171676636
1730559809123418600,3.606418701171875,0.005085945129394531,-0.017249174416065216,0.010175228118896484
1730559809133443000,3.616443115234375,0.0026454925537109375,0.00890999287366867,0.019426539540290833
1730559809143471000,3.62647119140625,-0.00917816162109375,0.04630862921476364,-0.0020466744899749756
1730559809153496600,3.63649658203125,0.00039577484130859375,0.047704439610242844,-0.0020117908716201782
1730559809163524400,3.6465244140625,-0.016099929809570312,0.04692499712109566,-0.009045317769050598
1730559809173555200,3.65655517578125,-0.008764266967773438,0.06039559841156006,-0.013554230332374573
1730559809183583200,3.666583251953125,0.007867813110351562,0.04752552509307861,-0.01793554425239563
1730559809193616000,3.676615966796875,0.014805793762207031,0.02575613558292389,-0.008266463875770569
1730559809203644400,3.68664453125,0.012208938598632812,0.020730257034301758,-0.0035745948553085327
1730559809213672000,3.696671875,0.004940032958984375,-0.010119691491127014,0.01763269305229187
1730559809223700200,3.7067001953125,-0.0045642852783203125,-0.002971082925796509,0.010220304131507874
1730559809233730300,3.716730224609375,-0.0068416595458984375,0.004109002649784088,0.024131283164024353
1730559809243758600,3.726758544921875,0.012117385864257812,-0.014788448810577393,0.019017621874809265
1730559809253765600,3.736765625,0.011918067932128906,-0.014632068574428558,0.009122297167778015
1730559809263792000,3.746792236328125,0.002300262451171875,-0.00966259092092514,0.01116982102394104
1730559809273834800,3.756834716796875,0.009327888488769531,-0.019013091921806335,0.003916263580322266
1730559809283862800,3.76686279296875,-0.0026063919067382812,-0.013968236744403839,-0.012638017535209656
1730559809293895200,3.776895263671875,-0.014342308044433594,0.007480394095182419,-0.024101972579956055
1730559809303923700,3.786923828125,-0.007033348083496094,0.02621360868215561,-0.021449297666549683
1730559809313960200,3.796960205078125,0.009573936462402344,0.0257381871342659,-0.0046556442975997925
1730559809323989500,3.806989501953125,0.0023479461669921875,0.03249400481581688,0.00013241171836853027
1730559809334015000,3.817014892578125,0.004666328430175781,0.020240813493728638,0.00007775425910949707
1730559809344043800,3.827043701171875,0.018723487854003906,0.02217109128832817,0.0023281127214431763
1730559809354051600,3.837051513671875,0.018416404724121094,0.0005664899945259094,0.023282721638679504
1730559809364078300,3.847078369140625,0.01810932159423828,-0.04418087750673294,0.02053944766521454
1730559809374121200,3.857121337890625,0.00838470458984375,-0.052799299359321594,0.02260422706604004
1730559809384149500,3.8671494140625,-0.0035333633422851562,-0.05190248787403107,0.0033829063177108765
1730559809394181600,3.877181640625,-0.017608642578125,-0.015844792127609253,0.012748152017593384
1730559809404210400,3.88721044921875,-0.0031833648681640625,-0.025036804378032684,0.022010162472724915
1730559809414245000,3.8972451171875,0.0015811920166015625,-0.015227466821670532,-0.006622135639190674
1730559809424274400,3.9072744140625,-0.0008001327514648438,0.01576922833919525,-0.02064518630504608
1730559809434281700,3.91728173828125,-0.0007905960083007812,0.046252574771642685,-0.013026535511016846
1730559809444309000,3.92730908203125,-0.0054912567138671875,0.05251580476760864,-0.01741628348827362
1730559809454343400,3.937343505859375,0.013442039489746094,0.037467390298843384,-0.01937928795814514
1730559809464371500,3.947371337890625,0.0037965774536132812,0.010942552238702774,-0.00256897509098053
1730559809474392300,3.957392333984375,-0.010395050048828125,-0.012836389243602753,0.013754144310951233
1730559809484419300,3.96741943359375,-0.007864952087402344,-0.04563547670841217,-0.000660330057144165
1730559809494480600,3.977480712890625,0.01817798614501953,-0.03789284825325012,0.01578843593597412
1730559809504511200,3.98751123046875,0.013162612915039062,-0.02541126310825348,0.020289331674575806
1730559809514511000,3.997510986328125,-0.0011882781982421875,-0.022663503885269165,0.01278221607208252
1730559809524538600,4.00753857421875,-0.010587692260742188,-0.014996230602264404,0.012517064809799194
1730559809534566400,4.01756640625,-0.0009946823120117188,0.001757197082042694,0.0007888674736022949
1730559809544594000,4.027593994140625,-0.0009822845458984375,0.00865962728857994,-0.01089748740196228
1730559809554624000,4.0376240234375,0.017876625061035156,0.0015172138810157776,-0.022390097379684448
1730559809564652000,4.047652099609375,0.0010881423950195312,0.02752365916967392,-0.026624470949172974
1730559809574680600,4.0576806640625,-0.00128936767578125,0.03881486505270004,-0.018956467509269714
1730559809584708600,4.06770849609375,-0.00362396240234375,0.017089340835809708,-0.006810486316680908
1730559809594737700,4.077737548828125,0.005862236022949219,-0.0019749775528907776,0.012042999267578125
1730559809604766000,4.087765869140625,-0.0013055801391601562,0.005093194544315338,0.02608036994934082
1730559809614792200,4.097792236328125,-0.0130615234375,-0.025650322437286377,0.032712116837501526
1730559809624820200,4.1078203125,-0.008131027221679688,-0.034733064472675323,0.015625759959220886
1730559809634872300,4.117872314453125,0.0037832260131835938,-0.01534462720155716,0.010602310299873352
1730559809644902400,4.12790234375,0.017850875854492188,-0.029257312417030334,0.0034625232219696045
1730559809654929700,4.1379296875,-0.0012950897216796875,-0.005197115242481232,-0.0035065263509750366
1730559809664959700,4.147959716796875,-0.005985260009765625,0.009038601070642471,-0.0199374258518219
1730559809674956000,4.1579560546875,-0.012951850891113281,-0.0027722343802452087,-0.017198607325553894
1730559809684982500,4.167982421875,-0.005671501159667969,-0.0026597753167152405,-0.016809076070785522
1730559809695042600,4.17804248046875,0.02033710479736328,-0.005059249699115753,-0.01427757740020752
1730559809705072600,4.18807275390625,-0.029470443725585938,0.025610219687223434,0.004856094717979431
1730559809715096300,4.198096435546875,0.011068344116210938,0.020594920963048935,-0.00946110486984253
1730559809725125600,4.208125732421875,-0.0008945465087890625,0.03199455142021179,-0.002236664295196533
1730559809735154400,4.218154541015625,-0.007947921752929688,0.019543688744306564,0.0025632381439208984
1730559809745183700,4.228183837890625,0.003964424133300781,-0.013793915510177612,0.014195159077644348
1730559809755209500,4.23820947265625,0.00389862060546875,-0.01820656657218933,0.011603012681007385
1730559809765238500,4.248238525390625,-0.005591392517089844,-0.01312100887298584,-0.0026194900274276733
1730559809775268400,4.258268310546875,0.0039196014404296875,-0.01529405266046524,-0.000013381242752075195
1730559809785297400,4.26829736328125,0.010919570922851562,-0.0149187371134758,-0.0022651106119155884
1730559809795325700,4.27832568359375,-0.012819290161132812,-0.012402474880218506,-0.002227678894996643
1730559809805354500,4.2883544921875,-0.01731395721435547,-0.012177780270576477,-0.0022937506437301636
1730559809815383300,4.29838330078125,0.011240005493164062,0.009293962270021439,-0.004507467150688171
1730559809825412000,4.308412109375,0.0016260147094726562,-0.004981093108654022,-0.01605585217475891
1730559809835439600,4.318439697265625,0.020442962646484375,-0.004887111485004425,-0.0016047656536102295
1730559809845468400,4.328468505859375,-0.008165359497070312,0.016204126179218292,-0.00628913938999176
1730559809855474200,4.33847412109375,-0.010384559631347656,0.01595316082239151,-0.0014724135398864746
1730559809865500700,4.348500732421875,-0.003147125244140625,0.015601664781570435,-0.008462443947792053
1730559809875550000,4.358550048828125,0.0157470703125,0.008237514644861221,0.012981906533241272
1730559809885578800,4.368578857421875,0.0013523101806640625,0.01978897675871849,-0.003775954246520996
1730559809895604200,4.378604248046875,-0.010447502136230469,0.01021016389131546,0.003405854105949402
1730559809905632800,4.3886328125,-0.01027679443359375,-0.006431065499782562,0.0011492520570755005
1730559809915670800,4.3986708984375,0.008737564086914062,-0.0017019286751747131,0.0011812597513198853
1730559809925700000,4.4087001953125,-0.000827789306640625,-0.01804102212190628,-0.003652796149253845
1730559809935698200,4.4186982421875,0.01096343994140625,-0.022379614412784576,-0.01767265796661377
1730559809945724400,4.428724365234375,0.008421897888183594,-0.015025511384010315,-0.005496293306350708
1730559809955782700,4.43878271484375,0.0035715103149414062,-0.007690355181694031,0.0016104727983474731
1730559809965812200,4.448812255859375,0.0035123825073242188,-0.009898625314235687,-0.007837921380996704
1730559809975831800,4.458831787109375,0.0034542083740234375,0.016035713255405426,0.001662224531173706
1730559809985860000,4.468860107421875,-0.0013151168823242188,0.011072926223278046,-0.005432531237602234
1730559809995902700,4.47890283203125,-0.015430450439453125,0.015615180134773254,0.004235610365867615
1730559810005932500,4.4889326171875,0.006028175354003906,-0.0011196210980415344,-0.0029541999101638794
1730559810015952000,4.498951904296875,0.012990951538085938,-0.0012923404574394226,-0.0028535276651382446
1730559810025980700,4.508980712890625,-0.0013608932495117188,-0.006068751215934753,0.0019569993019104004
1730559810036009200,4.51900927734375,-0.001338958740234375,-0.00600028783082962,0.004332497715950012
1730559810046038000,4.5290380859375,-0.0036725997924804688,-0.005834005773067474,-0.002807110548019409
1730559810056069000,4.539069091796875,-0.005969047546386719,-0.008027225732803345,0.006764575839042664
1730559810066098000,4.549097900390625,-0.015294075012207031,-0.008033201098442078,-0.0073783546686172485
1730559810076120000,4.5591201171875,0.0038022994995117188,-0.015001021325588226,-0.004796266555786133
1730559810086148400,4.5691484375,-0.00568389892578125,-0.0006514042615890503,-0.009427070617675781
1730559810096195000,4.579195068359375,-0.007944107055664062,-0.002979293465614319,-0.0022031962871551514
1730559810106225200,4.58922509765625,0.006323814392089844,-0.0029646530747413635,0.0024410784244537354
1730559810116216600,4.599216552734375,-0.0008497238159179688,0.013640951365232468,-0.00225946307182312
1730559810126242800,4.609242919921875,0.008584022521972656,0.008663985878229141,0.004947468638420105
1730559810136294400,4.61929443359375,-0.0009822845458984375,0.0014673694968223572,0.007219910621643066
1730559810146323200,4.6293232421875,0.008457183837890625,0.0038659125566482544,-0.002323046326637268
1730559810156353300,4.639353271484375,0.0012483596801757812,0.017950568348169327,0.00012271106243133545
1730559810166382300,4.64938232421875,-0.0034818649291992188,-0.005835764110088348,0.00006890296936035156
1730559810176408800,4.659408935546875,-0.010493278503417969,-0.0011152997612953186,-0.002184569835662842
1730559810186437400,4.669437255859375,0.003810882568359375,-0.008045375347137451,-0.011363953351974487
1730559810196465000,4.67946484375,-0.005675315856933594,0.008695792406797409,-0.013479024171829224
1730559810206493400,4.689493408203125,-0.014998435974121094,-0.012634843587875366,0.005434170365333557
1730559810216521000,4.69952099609375,-0.005326271057128906,-0.014765366911888123,0.012409642338752747
1730559810226549200,4.70954931640625,0.006543159484863281,-0.0026751309633255005,-0.0019830912351608276
1730559810236580400,4.719580322265625,0.004078865051269531,-0.014443442225456238,-0.001949995756149292
1730559810246609000,4.72960888671875,-0.021903038024902344,-0.014132976531982422,0.012319937348365784
1730559810256636000,4.739635986328125,-0.007404327392578125,0.007214799523353577,0.0003364086151123047
1730559810266664400,4.74966455078125,0.011565208435058594,0.016426585614681244,0.014359652996063232
1730559810276695800,4.75969580078125,0.011370658874511719,0.009001586586236954,-0.0070273131132125854
1730559810286724600,4.769724609375,-0.002956390380859375,0.01588211953639984,-0.0043995678424835205
1730559810296733700,4.779733642578125,-0.0052642822265625,0.017989743500947952,0.00519949197769165
1730559810306801400,4.789801513671875,-0.012240409851074219,0.005876898765563965,-0.011480152606964111
1730559810316828200,4.799828125,-0.00025844573974609375,-0.00362541526556015,0.007556155323982239
1730559810326838800,4.8098388671875,-0.00025844573974609375,0.006082013249397278,0.0029779523611068726
1730559810336864000,4.819864013671875,-0.00025081634521484375,-0.0010692998766899109,0.0027730166912078857
1730559810346883000,4.829883056640625,-0.00024318695068359375,-0.005747012794017792,-0.004495486617088318
1730559810356907800,4.83990771484375,-0.019084930419921875,-0.00574146956205368,0.009711861610412598
1730559810366950700,4.84995068359375,-0.016412734985351562,0.0036861225962638855,-0.0021770447492599487
1730559810376977200,4.85997705078125,0.00034999847412109375,-0.0033240020275115967,0.007332652807235718
1730559810387007200,4.87000732421875,-0.0043659210205078125,-0.000742010772228241,0.0024989694356918335
1730559810397034000,4.880033935546875,0.005131721496582031,0.008603569120168686,-0.01178036630153656
1730559810407068200,4.890068115234375,-0.0020198822021484375,-0.010471262037754059,-0.0092802494764328
1730559810417095700,4.900095703125,0.005082130432128906,0.001499079167842865,-0.004465833306312561
1730559810427131000,4.910130859375,0.0073528289794921875,-0.0032214224338531494,-0.0020361393690109253
1730559810437159200,4.9201591796875,-0.006905555725097656,0.02035532519221306,-0.0018978863954544067
1730559810447167500,4.93016748046875,0.009697914123535156,-0.008389145135879517,0.01226721704006195
1730559810457194000,4.940194091796875,0.009538650512695312,-0.008132457733154297,0.007247030735015869
1730559810467200000,4.950199951171875,-0.004754066467285156,-0.005522385239601135,-0.004600271582603455
1730559810477224400,4.960224365234375,0.01652240753173828,-0.003162682056427002,0.012068644165992737
1730559810487296500,4.970296630859375,0.025671005249023438,-0.0030966028571128845,0.01652561128139496
1730559810497325800,4.980325927734375,0.001689910888671875,0.015919998288154602,-0.0050535649061203
1730559810507348700,4.9903486328125,0.020505905151367188,-0.017255999147892,-0.00020673871040344238
1730559810517377300,5.000377197265625,0.008381843566894531,-0.00993899255990982,0.0023587793111801147
1730559810527409200,5.0104091796875,-0.005889892578125,0.006785459816455841,-0.004798680543899536
1730559810537438200,5.020438232421875,-0.015212059020996094,-0.005144000053405762,-0.002467736601829529
1730559810547441400,5.03044140625,-0.005535125732421875,0.023275889456272125,-0.004834175109863281
1730559810557467600,5.040467529296875,0.0039806365966796875,0.013483595103025436,0.011684015393257141
1730559810567524400,5.0505244140625,0.00862884521484375,0.008562233299016953,0.001962423324584961
1730559810577553700,5.0605537109375,0.010842323303222656,0.0012636780738830566,-0.0005301386117935181
1730559810587574300,5.07057421875,-0.0011196136474609375,-0.006012029945850372,0.0065979063510894775
1730559810597602600,5.0806025390625,-0.012879371643066406,-0.003641881048679352,0.004132747650146484
1730559810607637000,5.090636962890625,-0.007952690124511719,-0.0013147816061973572,-0.007766515016555786
1730559810617666000,5.100666015625,0.0086669921875,-0.0014337897300720215,0.008903071284294128
1730559810627689000,5.11068896484375,-0.0032558441162109375,-0.022592119872570038,0.011110633611679077
1730559810637717500,5.120717529296875,-0.0008449554443359375,-0.019843213260173798,-0.0009041875600814819
1730559810647753200,5.130753173828125,-0.0031833648681640625,-0.026563569903373718,0.008429184556007385
1730559810657782500,5.140782470703125,0.006290435791015625,-0.009615018963813782,-0.005741119384765625
1730559810667800000,5.150800048828125,0.0014772415161132812,0.021236222237348557,-0.005748867988586426
1730559810677828000,5.160828125,-0.010320663452148438,0.013779405504465103,0.01769520342350006
1730559810687854000,5.17085400390625,-0.0030813217163085938,0.006601050496101379,0.007977306842803955
1730559810697881900,5.1808818359375,0.0016765594482421875,-0.005320660769939423,0.012763068079948425
1730559810707904500,5.190904541015625,-0.005419731140136719,-0.019505098462104797,0.0007721483707427979
1730559810717931800,5.200931884765625,-0.005330085754394531,-0.00733821839094162,-0.015679359436035156
1730559810727941000,5.210941162109375,0.001827239990234375,0.0021691396832466125,0.0033742040395736694
1730559810737966600,5.220966552734375,-0.0029163360595703125,-0.005025163292884827,0.003368362784385681
1730559810748029000,5.23102880859375,-0.005223274230957031,0.002136319875717163,0.0009548962116241455
1730559810758058200,5.241058349609375,0.03020000457763672,-0.009449668228626251,0.003243878483772278
1730559810768078800,5.251078857421875,-0.0056362152099609375,-0.004461891949176788,0.010256201028823853
1730559810778107100,5.261107177734375,0.0015230178833007812,0.00730123370885849,-0.0016414821147918701
1730559810788138800,5.271138671875,-0.010281562805175781,0.007245838642120361,0.0008444041013717651
1730559810798167600,5.28116748046875,-0.005398750305175781,0.009549248963594437,0.0055415332317352295
1730559810808189400,5.291189453125,0.0064697265625,0.01647128164768219,-0.001618221402168274
1730559810818217500,5.301217529296875,-0.005414009094238281,-0.0026345402002334595,-0.006407007575035095
1730559810828254200,5.311254150390625,0.0017442703247070312,0.0020313262939453125,0.003069579601287842
1730559810838283300,5.321283203125,0.013489723205566406,-0.00028833746910095215,-0.006248101592063904
1730559810848307200,5.33130712890625,0.01326751708984375,0.009520310908555984,-0.0014320611953735352
1730559810858335700,5.341335693359375,0.0059814453125,-0.007061123847961426,0.01272459328174591
1730559810868362500,5.351362548828125,0.022370338439941406,0.00024250149726867676,0.01020839810371399
1730559810878390800,5.361390869140625,0.010219573974609375,0.016741953790187836,-0.001740291714668274
1730559810888418800,5.371418701171875,0.0006256103515625,0.0022415146231651306,0.005355119705200195
1730559810898447000,5.381447021484375,0.010038375854492188,-0.002544321119785309,-0.0018015354871749878
1730559810908494800,5.391494873046875,-0.004261970520019531,-0.004844166338443756,0.0005311369895935059
1730559810918525200,5.401525146484375,-0.011257171630859375,0.002316601574420929,0.00523240864276886
1730559810928549400,5.41154931640625,0.0054187774658203125,-0.004720151424407959,0.0004858672618865967
1730559810938579200,5.4215791015625,-0.013515472412109375,-0.007028542459011078,-0.004284068942070007
1730559810948592000,5.431592041015625,-0.01564311981201172,0.002372533082962036,-0.006723374128341675
1730559810958620000,5.441619873046875,0.00110626220703125,-0.007230229675769806,-0.006663784384727478
1730559810968681000,5.451680908203125,-0.017757415771484375,-0.004738457500934601,-0.0065010786056518555
1730559810978712300,5.46171240234375,-0.005682945251464844,0.00006614625453948975,0.005332663655281067
1730559810988691200,5.471691162109375,-0.005588531494140625,0.014163676649332047,-0.00653405487537384
1730559810998717200,5.48171728515625,0.0039272308349609375,0.006878860294818878,-0.011135905981063843
1730559811008778800,5.49177880859375,0.0038623809814453125,-0.0025915950536727905,-0.010950982570648193
1730559811018808300,5.501808349609375,-0.003269195556640625,0.004482157528400421,-0.00841321051120758
1730559811028833300,5.511833251953125,0.010919570922851562,-0.0027966350317001343,0.012875810265541077
1730559811038862300,5.5218623046875,-0.0010433197021484375,-0.0004317834973335266,0.0033418387174606323
1730559811048880400,5.53188037109375,-0.005740165710449219,0.009065080434083939,0.00344105064868927
1730559811058908400,5.541908447265625,-0.012709617614746094,0.001812279224395752,0.0009763389825820923
1730559811068953300,5.551953369140625,-0.003070831298828125,0.008865635842084885,0.005463719367980957
1730559811078983000,5.56198291015625,-0.00066375732421875,0.004022367298603058,0.007727906107902527
1730559811089014300,5.57201416015625,-0.014786720275878906,-0.007753930985927582,0.0029398053884506226
1730559811099044000,5.582044189453125,0.0043048858642578125,-0.014622807502746582,0.0005352497100830078
1730559811109064000,5.59206396484375,-0.021677017211914062,-0.0026361793279647827,0.005134031176567078
1730559811119092700,5.6020927734375,0.0022420883178710938,-0.00027633458375930786,0.004943475127220154
1730559811129122300,5.612122314453125,0.004561424255371094,-0.007474690675735474,-0.002308487892150879
1730559811139151000,5.622151123046875,-0.0025844573974609375,-0.01209038496017456,0.002546533942222595
1730559811149158700,5.63215869140625,-0.0001850128173828125,-0.016531571745872498,-0.00220702588558197
1730559811159185200,5.64218505859375,-0.00018310546875,-0.006926357746124268,-0.004527568817138672
1730559811169234000,5.65223388671875,0.006886482238769531,0.009587634354829788,0.002613574266433716
1730559811179262700,5.6622626953125,-0.014431953430175781,0.009394031018018723,-0.01145946979522705
1730559811189288700,5.672288818359375,-0.0024156570434570312,0.004545457661151886,-0.01351974904537201
1730559811199317200,5.682317138671875,0.011757850646972656,0.006838575005531311,0.010312080383300781
1730559811209347800,5.692347900390625,0.0068492889404296875,0.011506699025630951,-0.008651837706565857
1730559811219376600,5.702376708984375,0.006731986999511719,-0.007406957447528839,0.0010707825422286987
1730559811229404400,5.712404296875,0.013685226440429688,-0.014335758984088898,-0.001251518726348877
1730559811239433000,5.722432861328125,0.0016794204711914062,-0.009374715387821198,0.0011231601238250732
1730559811249458000,5.7324580078125,0.0016546249389648438,-0.0021372735500335693,-0.0013553500175476074
1730559811259486200,5.742486328125,0.013405799865722656,0.012049756944179535,-0.0037397295236587524
1730559811269519000,5.75251904296875,-0.0009508132934570312,0.009508993476629257,0.008100152015686035
1730559811279548000,5.7625478515625,-0.0009317398071289062,-0.00948312133550644,-0.0015624910593032837
1730559811289577000,5.772576904296875,-0.000911712646484375,0.009482201188802719,-0.0017443299293518066
1730559811299606000,5.78260595703125,-0.0032491683959960938,0.002376668155193329,-0.0018191784620285034
1730559811309633800,5.7926337890625,0.013293266296386719,-0.0001064687967300415,0.005277544260025024
1730559811319662600,5.80266259765625,0.00836181640625,0.0023194849491119385,-0.004232674837112427
1730559811329688300,5.812688232421875,0.010581016540527344,0.016534648835659027,-0.004265651106834412
1730559811339716600,5.822716552734375,0.010406494140625,-0.00016018003225326538,0.009887486696243286
1730559811349722600,5.83272265625,-0.00154876708984375,-0.009617045521736145,0.005165919661521912
1730559811359748900,5.842748779296875,0.0031862258911132812,0.002335585653781891,-0.00659516453742981
1730559811369812200,5.852812255859375,0.014909744262695312,-0.0071111321449279785,-0.011145085096359253
1730559811379842000,5.862842041015625,0.0028839111328125,0.0024441704154014587,0.00317344069480896
1730559811389860900,5.87286083984375,-0.023073196411132812,-0.006951496005058289,0.003016725182533264
1730559811399889700,5.8828896484375,-0.0038404464721679688,0.0049590542912483215,0.00516664981842041
1730559811409922600,5.892922607421875,0.012708663940429688,-0.002226494252681732,-0.01832006871700287
1730559811419951900,5.902951904296875,0.012495994567871094,-0.0044775232672691345,-0.001474231481552124
1730559811429948400,5.912948486328125,-0.0042018890380859375,-0.004332184791564941,-0.0037528276443481445
1730559811439974400,5.922974365234375,0.0029344558715820312,0.014603745192289352,-0.02248235046863556
1730559811450024700,5.933024658203125,0.0005283355712890625,0.00018949061632156372,-0.0008562207221984863
1730559811460053200,5.94305322265625,0.0005207061767578125,-0.009115569293498993,0.008580386638641357
1730559811470088200,5.953088134765625,0.007579803466796875,-0.0019837692379951477,-0.0033922791481018066
1730559811480117200,5.9631171875,-0.004324913024902344,0.007437758147716522,-0.005690917372703552
1730559811490147300,5.973147216796875,0.016948699951171875,0.005078636109828949,0.015604153275489807
1730559811500176400,5.98317626953125,0.0048885345458984375,0.007368706166744232,-0.0011441856622695923
1730559811510179600,5.9931796875,-0.011685371398925781,0.009571205824613571,0.0013869255781173706
1730559811520206000,6.0032060546875,-0.011491775512695312,0.009324904531240463,-0.005702868103981018
1730559811530259000,6.013259033203125,0.005188941955566406,-0.007198847830295563,-0.010266989469528198
1730559811540288300,6.023288330078125,0.005101203918457031,-0.018841102719306946,-0.000622093677520752
1730559811550314200,6.033314208984375,-0.023252487182617188,0.0002801939845085144,-0.0005606114864349365
1730559811560343000,6.043343017578125,-0.015791893005371094,0.0003936067223548889,0.006307587027549744
1730559811570373000,6.053373046875,-0.017887115478515625,0.009774338454008102,-0.0031161904335021973
1730559811580402200,6.063402099609375,-0.012876510620117188,0.014233458787202835,-0.005472317337989807
1730559811590426600,6.073426513671875,-0.0032396316528320312,-0.0002769157290458679,-0.01249992847442627
1730559811600455200,6.083455078125,-0.007899284362792969,-0.004912540316581726,-0.00035759806632995605
1730559811610444300,6.0934443359375,-0.00305938720703125,-0.011779792606830597,0.0021064430475234985
1730559811620469000,6.103468994140625,-0.0030069351196289062,0.01439410075545311,-0.005047842860221863
1730559811630545000,6.113544921875,-0.005312919616699219,0.002181537449359894,0.004405513405799866
1730559811640574700,6.12357470703125,0.011265754699707031,-0.005221366882324219,0.006582319736480713
1730559811650584800,6.133584716796875,-0.0030536651611328125,-0.009933292865753174,0.003961622714996338
1730559811660612600,6.143612548828125,-0.005359649658203125,-0.007448330521583557,0.0015914738178253174
1730559811670656000,6.153656005859375,-0.021759986877441406,-0.004950627684593201,-0.0007383525371551514
1730559811680685300,6.163685302734375,-0.004909515380859375,0.002267196774482727,-0.0006742030382156372
1730559811690705700,6.17370556640625,-0.0024709701538085938,0.004705265164375305,-0.0053740739822387695
1730559811700734200,6.183734130859375,-0.004782676696777344,-0.009333275258541107,-0.0006247460842132568
1730559811710779600,6.193779541015625,-0.0070590972900390625,-0.004448585212230682,0.004149109125137329
1730559811720809700,6.203809814453125,-0.0022296905517578125,0.014638859778642654,-0.010054543614387512
1730559811730825700,6.21382568359375,-0.0045490264892578125,0.0073966532945632935,0.00429825484752655
1730559811740854500,6.2238544921875,0.0025930404663085938,0.00022111833095550537,-0.0004334300756454468
1730559811750875100,6.233875244140625,-0.0021638870239257812,0.014414768666028976,-0.005035266280174255
1730559811760903200,6.243903076171875,0.004939079284667969,0.007226996123790741,-0.002544298768043518
1730559811770945800,6.25394580078125,0.007212638854980469,0.004715919494628906,0.01634274423122406
1730559811780975400,6.263975341796875,0.009447097778320312,-0.009582921862602234,-0.0004186183214187622
1730559811790997500,6.27399755859375,0.006931304931640625,-0.002445533871650696,-0.01444225013256073
1730559811801026000,6.284026123046875,-0.00025177001953125,-0.0000842064619064331,-0.002423614263534546
1730559811811061200,6.294061279296875,-0.012025833129882812,0.002339079976081848,0.00709022581577301
1730559811821090600,6.304090576171875,-0.00005054473876953125,0.014041807502508163,-0.0023469626903533936
1730559811831115300,6.314115234375,-0.0024051666259765625,0.006760142743587494,0.004759624600410461
1730559811841144300,6.324144287109375,-0.0023641586303710938,0.006717219948768616,0.007036268711090088
1730559811851152100,6.334152099609375,-0.018813133239746094,0.008875388652086258,-0.0001990199089050293
1730559811861179000,6.344178955078125,0.00034618377685546875,-0.00779656320810318,-0.004958614706993103
1730559811871230000,6.35422998046875,-0.00201416015625,-0.0006361380219459534,0.0021385252475738525
1730559811881259000,6.364259033203125,0.0003757476806640625,0.0041012391448020935,0.006761923432350159
1730559811891281000,6.374281005859375,-0.0043392181396484375,0.006457000970840454,0.011256888508796692
1730559811901309400,6.384309326171875,-0.018400192260742188,-0.014885790646076202,0.011069297790527344
1730559811911338000,6.394337890625,-0.003960609436035156,0.004222534596920013,-0.017382413148880005
1730559811921366500,6.404366455078125,0.012598037719726562,0.011182732880115509,0.006307363510131836
1730559811931382500,6.414382568359375,-0.0040988922119140625,0.0039464011788368225,0.008454397320747375
1730559811941409800,6.424409912109375,-0.01345062255859375,-0.00547192245721817,0.012973248958587646
1730559811951453200,6.434453125,0.007970809936523438,-0.012636914849281311,0.0033869892358779907
1730559811961482000,6.44448193359375,0.0031270980834960938,0.001563921570777893,0.00558115541934967
1730559811971496700,6.45449658203125,0.00307464599609375,-0.0007997825741767883,-0.001578211784362793
1730559811981524200,6.464524169921875,0.010089874267578125,-0.0007719844579696655,-0.008567526936531067
1730559811991555600,6.4745556640625,-0.0042133331298828125,0.02281227707862854,-0.0060176849365234375
1730559812001583400,6.484583251953125,0.007636070251464844,0.015485711395740509,-0.0035617798566818237
1730559812011613400,6.494613525390625,0.005154609680175781,0.020060326904058456,-0.0011982619762420654
1730559812021641500,6.504641357421875,0.0027112960815429688,0.003151349723339081,0.010651737451553345
1730559812031672300,6.51467236328125,-0.009111404418945312,-0.013376891613006592,-0.010726988315582275
1730559812041700600,6.52470068359375,-0.0018911361694335938,-0.017950698733329773,0.003482043743133545
1730559812051732700,6.534732666015625,0.0028524398803710938,0.012832339853048325,-0.003746315836906433
1730559812061761500,6.544761474609375,0.0075206756591796875,0.007919449359178543,0.003174304962158203
1730559812071789800,6.554789794921875,-0.011450767517089844,0.010208122432231903,0.0032239556312561035
1730559812081818600,6.564818603515625,-0.006548881530761719,0.007699210196733475,0.0031702518463134766
1730559812091847400,6.574847412109375,0.014758110046386719,0.000626884400844574,-0.010911747813224792
1730559812101876200,6.584876220703125,-0.009042739868164062,0.01722816750407219,0.0011004805564880371
1730559812111904000,6.594904052734375,0.0028867721557617188,0.01224667951464653,-0.006036356091499329
1730559812121932500,6.6049326171875,0.005196571350097656,0.000383913516998291,0.008145585656166077
1730559812131962400,6.61496240234375,0.0051059722900390625,-0.011437684297561646,0.008164525032043457
1730559812141991200,6.6249912109375,0.0003070831298828125,-0.004318900406360626,0.0057764798402786255
1730559812152021000,6.63502099609375,0.014435768127441406,0.0027318447828292847,-0.0014386475086212158
1730559812162050000,6.645050048828125,0.0047702789306640625,-0.004417724907398224,0.0057549625635147095
1730559812172093400,6.655093505859375,0.007046699523925781,-0.006735891103744507,-0.008474737405776978
1730559812182123800,6.665123779296875,0.0022182464599609375,-0.008963562548160553,-0.00833381712436676
1730559812192146200,6.675146240234375,-0.011952400207519531,-0.004087388515472412,-0.010550811886787415
1730559812202175700,6.68517578125,-0.021177291870117188,-0.004001304507255554,-0.010322794318199158
1730559812212178400,6.695178466796875,-0.006693840026855469,-0.008732333779335022,0.008848845958709717
1730559812222205200,6.705205078125,0.0004863739013671875,-0.0038600116968154907,0.0085974782705307
1730559812232263400,6.715263427734375,0.014614105224609375,-0.001422092318534851,-0.0010716170072555542
1730559812242293200,6.725293212890625,0.004952430725097656,-0.006197489798069,0.0010942965745925903
1730559812252307200,6.73530712890625,0.0072231292724609375,-0.0038781538605690002,0.008245885372161865
1730559812262335500,6.74533544921875,-0.0023174285888671875,0.012897137552499771,-0.0013663172721862793
1730559812272373000,6.755373046875,0.0095062255859375,0.003325030207633972,0.007818534970283508
1730559812282392600,6.765392578125,-0.000072479248046875,0.007996384054422379,0.00522884726524353
1730559812292422000,6.775421875,0.0046405792236328125,0.0008661672472953796,-0.006635800004005432
1730559812302451200,6.785451171875,-0.0048618316650390625,-0.00148821622133255,0.0030003786087036133
1730559812312475400,6.795475341796875,-0.007136344909667969,-0.0014454498887062073,-0.004064202308654785
1730559812322504200,6.805504150390625,0.00240325927734375,0.0007968097925186157,-0.00164051353931427
1730559812332558800,6.815558837890625,-0.007058143615722656,0.007865924388170242,-0.004020988941192627
1730559812342590200,6.825590087890625,0.0001277923583984375,0.000735551118850708,0.0077717602252960205
1730559812352592000,6.835591796875,0.000125885009765625,0.0008950084447860718,-0.0017284005880355835
1730559812362620400,6.845620361328125,-0.011654853820800781,-0.0014068931341171265,0.003063380718231201
1730559812372645000,6.85564501953125,0.009737968444824219,0.005701243877410889,-0.0015949159860610962
1730559812382673200,6.865673095703125,0.009575843811035156,0.005466490983963013,-0.015753909945487976
1730559812392685300,6.875685302734375,-0.009430885314941406,0.007643159478902817,0.0011007636785507202
1730559812402711800,6.8857119140625,0.0001468658447265625,0.014651075005531311,0.0011342167854309082
1730559812412762400,6.895762451171875,-0.016344070434570312,-0.0045246705412864685,-0.01071445643901825
1730559812422791400,6.90579150390625,-0.009006500244140625,-0.01160043478012085,-0.0034166574478149414
1730559812432814000,6.91581396484375,-0.008859634399414062,0.005148157477378845,-0.007916271686553955
1730559812442842400,6.92584228515625,-0.00164794921875,0.0004680827260017395,-0.0029706358909606934
1730559812452874200,6.935874267578125,0.0077991485595703125,-0.013599924743175507,0.0019468367099761963
1730559812462902800,6.94590283203125,0.007670402526855469,-0.006290905177593231,-0.002848878502845764
1730559812472926200,6.95592626953125,0.009900093078613281,-0.0015628114342689514,-0.005260825157165527
1730559812482954200,6.965954345703125,0.005024909973144531,-0.0016799867153167725,-0.005278095602989197
1730559812492988400,6.975988525390625,0.01907634735107422,-0.0017411485314369202,-0.0005832910537719727
1730559812503017200,6.986017333984375,-0.00008678436279296875,0.005422025918960571,0.008900195360183716
1730559812513041700,6.996041748046875,-0.009508132934570312,0.0077028535306453705,0.008803308010101318
1730559812523070000,7.006070068359375,-0.0022840499877929688,0.007588941603899002,0.003996551036834717
1730559812533096700,7.0160966796875,0.0024652481079101562,0.0074780844151973724,0.0015740394592285156
1730559812543124700,7.026124755859375,0.025979042053222656,-0.004353508353233337,0.001600310206413269
1730559812553127200,7.036127197265625,0.02319049835205078,0.010025382041931152,-0.005441069602966309
1730559812563153000,7.04615283203125,0.011025428771972656,0.009823299944400787,0.00647929310798645
1730559812573216000,7.056216064453125,0.006130218505859375,-0.006765291094779968,0.0016587823629379272
1730559812583245300,7.066245361328125,-0.0010395050048828125,0.005246900022029877,-0.0030278414487838745
1730559812593286100,7.0762861328125,0.0036907196044921875,0.0005699992179870605,0.01581573486328125
1730559812603316700,7.086316650390625,0.00833892822265625,0.007488604635000229,-0.00559622049331665
1730559812613332500,7.09633251953125,-0.001224517822265625,0.011988256126642227,-0.00074005126953125
1730559812623361500,7.106361572265625,-0.012979507446289062,-0.018664143979549408,-0.0031357556581497192
1730559812633394400,7.11639453125,-0.0009870529174804688,-0.0017977505922317505,0.0017306208610534668
1730559812643423700,7.126423828125,-0.010392189025878906,0.005312249064445496,0.006411910057067871
1730559812653426000,7.136426025390625,-0.019643783569335938,0.007698196917772293,-0.0030142515897750854
1730559812663452700,7.14645263671875,0.00188446044921875,0.0005211308598518372,-0.010082155466079712
1730559812673489000,7.156489013671875,0.008924484252929688,0.014659211039543152,-0.021900370717048645
1730559812683516700,7.1665166015625,0.00406646728515625,-0.004465870559215546,-0.0027946531772613525
1730559812693568800,7.17656884765625,-0.0030679702758789062,0.00033770501613616943,-0.00510329008102417
1730559812703598800,7.186598876953125,-0.005373954772949219,0.0074179209768772125,-0.009625047445297241
1730559812713615400,7.196615478515625,0.0064945220947265625,-0.009337805211544037,0.004615724086761475
1730559812723644200,7.20664404296875,0.013453483581542969,-0.011524438858032227,-0.0025807619094848633
1730559812733681700,7.216681640625,-0.005615234375,0.0005671605467796326,0.011647894978523254
1730559812743711200,7.226711181640625,0.0062541961669921875,-0.004293210804462433,-0.002576395869255066
1730559812753735700,7.236735595703125,0.008504867553710938,0.002911306917667389,0.006939932703971863
1730559812763765000,7.246764892578125,0.0012989044189453125,0.0169554241001606,0.009022712707519531
1730559812773779200,7.256779296875,0.0012826919555664062,0.0025549978017807007,-0.01023121178150177
1730559812783806700,7.266806640625,0.0012598037719726562,0.007448691874742508,0.004228502511978149
1730559812793855500,7.27685546875,0.0012369155883789062,0.019168827682733536,0.00426115095615387
1730559812803885300,7.28688525390625,-0.00585174560546875,0.0023794397711753845,0.0018870532512664795
1730559812813904100,7.296904052734375,-0.01988697052001953,0.004713304340839386,-0.0029069334268569946
1730559812823932700,7.3069326171875,0.006359100341796875,0.00925561785697937,0.006407395005226135
1730559812833961200,7.316961181640625,-0.014949798583984375,-0.005170680582523346,-0.012440398335456848
1730559812843990000,7.326989990234375,-0.012346267700195312,-0.0074174776673316956,0.004309490323066711
1730559812854026000,7.33702587890625,-0.0050716400146484375,0.01628218963742256,-0.005287274718284607
1730559812864055600,7.3470556640625,-0.014409065246582031,-0.00046024471521377563,0.0042235106229782104
1730559812874061000,7.35706103515625,-0.0000362396240234375,-0.014671452343463898,0.0041534751653671265
1730559812884087800,7.367087890625,-0.002391815185546875,-0.02383243292570114,0.011150971055030823
1730559812894134000,7.377134033203125,-0.009419441223144531,-0.013993769884109497,0.003951013088226318
1730559812904163000,7.3871630859375,0.007225990295410156,-0.011595338582992554,-0.010248273611068726
1730559812914169600,7.397169677734375,0.00003719329833984375,-0.006728172302246094,0.0017514079809188843
1730559812924196400,7.4071962890625,0.007107734680175781,-0.0017350763082504272,0.008684709668159485
1730559812934250000,7.41725,0.0046329498291015625,-0.006402797996997833,-0.003186658024787903
1730559812944279300,7.427279296875,-0.02135944366455078,-0.006384044885635376,-0.0006228983402252197
1730559812954306000,7.43730615234375,-0.009228706359863281,0.0033179447054862976,0.009017258882522583
1730559812964335000,7.447335205078125,0.0027008056640625,-0.001378759741783142,-0.00045137107372283936
1730559812974341400,7.45734130859375,-0.002056121826171875,-0.00861360877752304,0.0019114017486572266
1730559812984368000,7.4673681640625,0.009754180908203125,-0.0014336705207824707,0.001984521746635437
1730559812994417400,7.47741748046875,-0.006897926330566406,0.008186202496290207,-0.007366672158241272
1730559813004446500,7.487446533203125,0.004994392395019531,0.0034566670656204224,-0.002481624484062195
1730559813014473700,7.4974736328125,-0.004511833190917969,-0.008365511894226074,0.002269849181175232
1730559813024502500,7.50750244140625,-0.025634765625,-0.00114373117685318,-0.0072423964738845825
1730559813034529000,7.517529052734375,0.005415916442871094,-0.00838172435760498,0.002197086811065674
1730559813044557600,7.5275576171875,0.031236648559570312,0.0011982247233390808,-0.004905879497528076
1730559813054591200,7.53759130859375,0.023650169372558594,0.008363086730241776,0.004649341106414795
1730559813064620300,7.547620361328125,0.006768226623535156,-0.005894124507904053,-0.000191420316696167
1730559813074638600,7.557638671875,-0.0074787139892578125,0.00123702734708786,0.002219453454017639
1730559813084666600,7.56766650390625,-0.007355690002441406,-0.0010717511177062988,0.0022857189178466797
1730559813094703600,7.57770361328125,-0.000164031982421875,-0.01276428997516632,-0.009634241461753845
1730559813104732400,7.587732421875,-0.0001621246337890625,-0.0056245774030685425,-0.002407267689704895
1730559813114758700,7.597758544921875,0.00690460205078125,0.00846174731850624,0.007158026099205017
1730559813124787500,7.607787353515625,0.0067901611328125,-0.005642883479595184,-0.00002866983413696289
1730559813134819600,7.617819580078125,-0.00038623809814453125,-0.00547906756401062,-0.0048944056034088135
1730559813144848600,7.6278486328125,0.0066890716552734375,0.013578396290540695,0.006913632154464722
1730559813154886400,7.637886474609375,0.0065822601318359375,0.020429816097021103,0.01365603506565094
1730559813164916200,7.647916259765625,0.015892982482910156,-0.008316196501255035,0.0064135342836380005
1730559813174928000,7.657927978515625,0.0014944076538085938,-0.017373964190483093,-0.0007076412439346313
1730559813184956000,7.667955810546875,0.010894775390625,-0.00523792952299118,0.0062673091888427734
1730559813194992000,7.6779921875,0.006005287170410156,0.004077635705471039,-0.0034678280353546143
1730559813205021200,7.688021240234375,0.01532745361328125,-0.005448788404464722,-0.01754380762577057
1730559813215050800,7.69805078125,-0.010838508605957031,-0.005391813814640045,0.006304726004600525
1730559813225079600,7.70807958984375,-0.005947113037109375,0.008790675550699234,-0.012646690011024475
1730559813235098600,7.7180986328125,-0.0011348724365234375,-0.0007084459066390991,-0.0030649900436401367
1730559813245126400,7.72812646484375,-0.012895584106445312,-0.010098658502101898,0.004157498478889465
1730559813255160000,7.73816015625,-0.022100448608398438,0.006677955389022827,0.0016286522150039673
1730559813265188400,7.748188232421875,-0.009949684143066406,0.01621292531490326,0.0014979392290115356
1730559813275187000,7.75818701171875,0.011415481567382812,-0.017017431557178497,0.01094728708267212
1730559813285212400,7.76821240234375,0.02535533905029297,-0.009856238961219788,0.0037502795457839966
1730559813295276800,7.77827685546875,-0.0033397674560546875,0.006655633449554443,-0.0032236874103546143
1730559813305306000,7.78830615234375,-0.005640983581542969,0.008971210569143295,0.0015937238931655884
1730559813315333600,7.798333740234375,0.006228446960449219,0.001723460853099823,0.0016718357801437378
1730559813325363000,7.808363037109375,0.0037670135498046875,-0.003256283700466156,0.001644715666770935
1730559813335385900,7.8183857421875,-0.012783050537109375,-0.010303720831871033,-0.0031973421573638916
1730559813345414400,7.828414306640625,0.02040863037109375,0.008832994848489761,-0.014921903610229492
1730559813355427300,7.83842724609375,0.013005256652832031,0.008858855813741684,-0.005353957414627075
1730559813365454000,7.8484541015625,-0.0037021636962890625,-0.005407772958278656,0.00426049530506134
1730559813375483400,7.8584833984375,0.0010709762573242188,0.006474711000919342,0.004188805818557739
1730559813385510700,7.8685107421875,-0.006009101867675781,0.004129268229007721,-0.0054593682289123535
1730559813395559700,7.8785595703125,0.00351715087890625,-0.005188144743442535,0.0016468465328216553
1730559813405589000,7.888589111328125,-0.0012559890747070312,0.011510081589221954,0.004131138324737549
1730559813415589400,7.89858935546875,-0.017726898193359375,-0.009814687073230743,-0.0028498172760009766
1730559813425616000,7.908615966796875,-0.022138595581054688,0.01638174057006836,-0.002957284450531006
1730559813435650800,7.91865087890625,0.008852005004882812,-0.0193106010556221,-0.0005002021789550781
1730559813445678000,7.928677978515625,0.011060714721679688,0.0020210519433021545,0.013538047671318054
1730559813455732500,7.938732421875,0.0014524459838867188,0.004254758358001709,0.0015342086553573608
1730559813465762600,7.948762451171875,-0.010348320007324219,-0.014645107090473175,-0.003254637122154236
1730559813475774200,7.958774169921875,0.0015993118286132812,-0.0003553852438926697,-0.0030972957611083984
1730559813485802200,7.96880224609375,-0.0007867813110351562,0.004480898380279541,0.0018723160028457642
1730559813495849700,7.978849609375,-0.0007724761962890625,-0.004843577742576599,-0.0028699934482574463
1730559813505879800,7.9888798828125,0.006308555603027344,-0.004955589771270752,-0.00763760507106781
1730559813515904500,7.998904541015625,0.0062046051025390625,-0.0025535672903060913,-0.005206853151321411
1730559813525934300,8.008934326171875,0.006099700927734375,0.0116887167096138,0.002049580216407776
1730559813535960800,8.0189609375,-0.0034275054931640625,0.011458903551101685,0.009185761213302612
1730559813545990100,8.028990234375,0.0036954879760742188,0.008877340704202652,0.011440068483352661
1730559813556018200,8.03901806640625,-0.005789756774902344,0.00628584623336792,0.008893504738807678
1730559813566047200,8.049047119140624,0.015507698059082031,0.0038399845361709595,0.008692800998687744
1730559813576075300,8.0590751953125,0.029382705688476562,0.0038422495126724243,-0.0008750557899475098
1730559813586104300,8.069104248046875,-0.0017309188842773438,0.003638431429862976,-0.0031645596027374268
1730559813596117000,8.079116943359375,-0.008769035339355469,-0.0010660365223884583,0.0016507059335708618
1730559813606144300,8.089144287109375,-0.006268501281738281,-0.019878394901752472,0.008689254522323608
1730559813616149200,8.099149169921875,-0.013232231140136719,0.008629728108644485,0.008595094084739685
1730559813626174500,8.109174560546874,-0.010657310485839844,-0.01050189882516861,0.0037393271923065186
1730559813636235000,8.119235107421876,0.0036525726318359375,-0.012664422392845154,-0.003337383270263672
1730559813646263800,8.129263916015624,-0.008187294006347656,-0.012436553835868835,-0.0008743554353713989
1730559813656296200,8.139296142578125,-0.00098419189453125,-0.00760728120803833,-0.010334566235542297
1730559813666325200,8.1493251953125,0.008457183837890625,0.009128931909799576,0.0062749385833740234
1730559813676349000,8.159348876953125,-0.0034608840942382812,0.0019268468022346497,-0.0033036768436431885
1730559813686377500,8.16937744140625,-0.012826919555664062,0.004162348806858063,0.0038695931434631348
1730559813696400400,8.179400390625,-0.0008363723754882812,-0.007723361253738403,0.0038558393716812134
1730559813706428200,8.18942822265625,-0.0031795501708984375,-0.0028690099716186523,-0.0032240450382232666
1730559813716460500,8.19946044921875,0.003935813903808594,-0.014736548066139221,0.006407827138900757
1730559813726488800,8.20948876953125,0.0132904052734375,-0.007356792688369751,0.02053774893283844
1730559813736519200,8.219519287109375,0.0036468505859375,-0.01412634551525116,0.0037589669227600098
1730559813746547700,8.229547607421875,-0.005833625793457031,-0.030208900570869446,0.003644198179244995
1730559813756575500,8.239575439453125,-0.0010290145874023438,-0.0014205500483512878,-0.012749776244163513
1730559813766603800,8.249603759765625,0.001346588134765625,0.005687803030014038,-0.007929325103759766
1730559813776628500,8.25962841796875,0.006035804748535156,0.012624748051166534,-0.010152697563171387
1730559813786656500,8.269656494140625,-0.019975662231445312,0.010076720267534256,-0.007679298520088196
1730559813796695000,8.279695068359375,-0.0031557083129882812,-0.011326439678668976,-0.0027882754802703857
1730559813806724400,8.289724365234376,-0.0007476806640625,0.007716752588748932,-0.0003883540630340576
1730559813816744000,8.299743896484374,0.008690834045410156,-0.00652853399515152,0.0018702298402786255
1730559813826772200,8.309772216796874,0.003833770751953125,-0.0015363916754722595,0.0019426792860031128
1730559813836812000,8.31981201171875,0.008481979370117188,0.000805094838142395,0.008923768997192383
1730559813846841300,8.32984130859375,0.017760276794433594,0.010175485163927078,0.013536959886550903
1730559813856868600,8.33986865234375,0.0033311843872070312,-0.004162557423114777,0.0038890838623046875
1730559813866897700,8.349897705078124,0.007985115051269531,-0.01355164498090744,0.0038757622241973877
1730559813876928300,8.35992822265625,0.0031414031982421875,0.005379021167755127,-0.0010039210319519043
1730559813886957600,8.36995751953125,-0.008688926696777344,0.01718532294034958,-0.010358363389968872
1730559813896989200,8.3799892578125,0.005591392517089844,0.012308180332183838,0.003895968198776245
1730559813907018800,8.390018798828125,-0.003924369812011719,-0.009081490337848663,0.01560857892036438
1730559813917038600,8.40003857421875,0.005558967590332031,-0.001846611499786377,0.013199925422668457
1730559813927067100,8.410067138671875,0.0031070709228515625,0.0005565360188484192,-0.0009980946779251099
1730559813937112600,8.420112548828126,0.005413055419921875,0.000667870044708252,0.010744571685791016
1730559813947143000,8.430142822265625,0.0006093978881835938,0.005488313734531403,0.01302473247051239
1730559813957157400,8.440157470703125,0.0029544830322265625,0.0006542429327964783,-0.001324668526649475
1730559813967186200,8.450186279296876,-0.006514549255371094,0.0008155480027198792,-0.0037099123001098633
1730559813977203700,8.46020361328125,-0.004047393798828125,-0.0013310164213180542,-0.0013445615768432617
1730559813987231200,8.470231201171876,-0.003983497619628906,0.008127935230731964,-0.0011674463748931885
1730559813997271000,8.48027099609375,0.00550079345703125,0.007852546870708466,0.010785147547721863
1730559814007299800,8.4902998046875,-0.004012107849121094,-0.008856482803821564,0.008145540952682495
1730559814017329400,8.500329345703125,0.0031223297119140625,0.0030328407883644104,0.0009427517652511597
1730559814027358200,8.510358154296876,0.005427360534667969,0.0053028687834739685,0.003230869770050049
1730559814037383000,8.5203828125,-0.013504981994628906,0.00036363303661346436,-0.0016897916793823242
1730559814047411500,8.530411376953126,-0.010926246643066406,0.012149915099143982,0.0007968693971633911
1730559814057420000,8.540419921875,0.0010318756103515625,-0.002014167606830597,-0.0014168471097946167
1730559814067446500,8.550446533203125,-0.0013360977172851562,-0.008873999118804932,0.010229676961898804
1730559814077488000,8.560488037109375,-0.0036678314208984375,-0.0015906766057014465,0.0052962154150009155
1730559814087516200,8.57051611328125,0.019947052001953125,-0.015734940767288208,-0.0018076598644256592
1730559814097559000,8.58055908203125,0.012544631958007812,-0.010796584188938141,-0.006384894251823425
1730559814107588600,8.590588623046875,-0.015932083129882812,-0.01059865951538086,0.0008404552936553955
1730559814117609000,8.60060888671875,0.010242462158203125,0.020164329558610916,0.00799638032913208
1730559814127637500,8.610637451171876,0.00064849853515625,0.026858817785978317,0.005507230758666992
1730559814137668900,8.6206689453125,0.00534820556640625,0.0028722360730171204,-0.001599431037902832
1730559814147697700,8.63069775390625,-0.013586997985839844,-0.0065269991755485535,0.003190949559211731
1730559814157724700,8.640724609375,-0.0039386749267578125,0.007837958633899689,0.000834733247756958
1730559814167753200,8.650753173828125,-0.006230354309082031,0.019556138664484024,0.0127030611038208
1730559814177778000,8.66077783203125,-0.0061244964599609375,-0.0018484368920326233,0.014795541763305664
1730559814187806200,8.67080615234375,-0.010728836059570312,0.002806738018989563,0.00020834803581237793
1730559814197837600,8.680837646484376,-0.015263557434082031,0.005028717219829559,-0.00445440411567688
1730559814207866400,8.690866455078124,-0.005587577819824219,0.00009517371654510498,0.012057110667228699
1730559814217900300,8.700900390625,-0.0054912567138671875,-0.004598386585712433,0.004686534404754639
1730559814227929300,8.710929443359374,-0.010107040405273438,0.0026077255606651306,0.002147495746612549
1730559814237955300,8.720955322265626,0.008910179138183594,0.007289871573448181,0.0043112486600875854
1730559814247984000,8.730984130859374,-0.005372047424316406,0.009593728929758072,0.004239797592163086
1730559814258012700,8.7410126953125,0.0064945220947265625,-0.0023283958435058594,0.011339113116264343
1730559814268041200,8.751041259765625,0.01816272735595703,0.00013577193021774292,0.00884672999382019
1730559814278065400,8.7610654296875,0.008441925048828125,0.009520847350358963,0.006188437342643738
1730559814288093700,8.77109375,0.022434234619140625,-0.007163010537624359,-0.000981748104095459
1730559814298124800,8.781124755859375,0.010279655456542969,-0.004622936248779297,-0.0008109807968139648
1730559814308153300,8.7911533203125,-0.00167083740234375,0.004788458347320557,0.0015577971935272217
1730559814318172200,8.801172119140626,-0.0016374588012695312,0.00933193787932396,-0.0010828226804733276
1730559814328199700,8.81119970703125,0.0007476806640625,0.011599421501159668,-0.005828037858009338
1730559814338227200,8.821227294921876,0.0007352828979492188,0.0019982606172561646,0.00133514404296875
1730559814348255000,8.8312548828125,-0.003987312316894531,-0.007441706955432892,0.01303863525390625
1730559814358288600,8.84128857421875,0.02199554443359375,-0.021177522838115692,0.008005842566490173
1730559814368316700,8.851316650390626,0.0074939727783203125,-0.004268087446689606,-0.003802180290222168
1730559814378339000,8.861339111328125,0.0050144195556640625,0.012153580784797668,-0.017975762486457825
1730559814388366600,8.87136669921875,-0.018625259399414062,0.00955929234623909,-0.010609760880470276
1730559814398373600,8.88137353515625,-0.025382041931152344,-0.004716694355010986,-0.0009589046239852905
1730559814408399000,8.891399169921876,0.000949859619140625,-0.006926238536834717,-0.005550816655158997
1730559814418453800,8.901453857421876,-0.006133079528808594,0.004930824041366577,0.0016081035137176514
1730559814428482300,8.911482421875,-0.020165443420410156,0.004658274352550507,0.001581341028213501
1730559814438513000,8.921512939453125,-0.015118598937988281,-0.0003715530037879944,0.0038591325283050537
1730559814448541700,8.931541748046875,0.0016241073608398438,-0.005006715655326843,0.010810136795043945
1730559814458576400,8.941576416015625,0.013370513916015625,0.004515856504440308,0.006074339151382446
1730559814468605700,8.951605712890625,0.013146400451660156,-0.0004644617438316345,0.0012609362602233887
1730559814478630000,8.9616298828125,-0.0012073516845703125,0.018248196691274643,-0.003471553325653076
1730559814488658700,8.97165869140625,-0.0011911392211914062,0.00853976234793663,0.0014532357454299927
1730559814498692400,8.9816923828125,0.0035381317138671875,-0.0033636093139648438,-0.017311930656433105
1730559814508721700,8.9917216796875,0.00112152099609375,0.0013674423098564148,-0.0028384625911712646
1730559814518741500,9.001741455078125,0.0175933837890625,-0.01015414297580719,0.004276663064956665
1730559814528780000,9.011780029296874,0.014942169189453125,-0.005209095776081085,0.011368602514266968
1730559814538808300,9.021808349609374,0.0076274871826171875,0.01127595454454422,-0.0053688883781433105
1730559814548838100,9.031838134765625,-0.0019197463989257812,-0.005388200283050537,-0.007745817303657532
1730559814558866400,9.041866455078125,-0.00188446044921875,0.004190847277641296,0.0040510594844818115
1730559814568894700,9.051894775390625,-0.0042057037353515625,-0.012361109256744385,-0.005551323294639587
1730559814578923000,9.061923095703126,0.0029325485229492188,0.0040312260389328,-0.00557100772857666
1730559814588954400,9.071954345703125,-0.001827239990234375,0.0038732141256332397,-0.0008260458707809448
1730559814598983000,9.08198291015625,-0.0017948150634765625,-0.0009438395500183105,-0.007990524172782898
1730559814609027000,9.092027099609375,-0.008829116821289062,-0.005785606801509857,-0.007969379425048828
1730559814619057200,9.10205712890625,-0.011037826538085938,0.001282036304473877,-0.012556314468383789
1730559814629062100,9.112062255859374,0.0009212493896484375,0.0011653974652290344,-0.00047440826892852783
1730559814639090000,9.12208984375,0.005616188049316406,0.010630518198013306,-0.007489338517189026
1730559814649114000,9.132114013671876,0.007876396179199219,-0.01544518768787384,-0.004912585020065308
1730559814659141400,9.142141357421876,-0.01110076904296875,-0.0010944902896881104,-0.0024309009313583374
1730559814669175300,9.15217529296875,-0.0038518905639648438,-0.005727462470531464,0.00006021559238433838
1730559814679203300,9.162203369140625,0.0009250640869140625,-0.005572102963924408,0.007117316126823425
1730559814689238300,9.17223828125,0.010332107543945312,0.00625726580619812,-0.00007596611976623535
1730559814699267000,9.18226708984375,-0.015752792358398438,0.020299222320318222,-0.007096841931343079
1730559814709291800,9.192291748046875,0.0009975433349609375,-0.0107017382979393,0.004843547940254211
1730559814719320000,9.202320068359375,-0.0037336349487304688,0.005925469100475311,0.004858851432800293
1730559814729347600,9.21234765625,0.0033931732177734375,0.010392926633358002,-0.004548758268356323
1730559814739375600,9.222375732421876,-0.001373291015625,0.0009102821350097656,-0.006888598203659058
1730559814749382100,9.232382080078125,-0.015484809875488281,-0.008362874388694763,-0.00903424620628357
1730559814759408400,9.242408447265625,0.005976676940917969,-0.012873575091362,-0.00428435206413269
1730559814769460200,9.252460205078124,0.012943267822265625,0.006196066737174988,0.002845853567123413
1730559814779489000,9.262489013671875,0.0009508132934570312,0.006052620708942413,-0.01846112310886383
1730559814789524500,9.2725244140625,0.010356903076171875,-0.005868673324584961,-0.013398721814155579
1730559814799553800,9.2825537109375,0.005467414855957031,-0.008063018321990967,0.0012094825506210327
1730559814809583000,9.2925830078125,0.0030202865600585938,0.001453489065170288,0.010604068636894226
1730559814819612400,9.3026123046875,0.0006132125854492188,-0.012639597058296204,-0.003661513328552246
1730559814829636000,9.312635986328125,-0.013531684875488281,0.008732248097658157,0.005866378545761108
1730559814839665000,9.322664794921875,-0.006245613098144531,-0.00574115663766861,0.003613010048866272
1730559814849693200,9.332693115234376,-0.0037860870361328125,-0.012701749801635742,0.0035448819398880005
1730559814859722000,9.342721923828124,-0.01785755157470703,0.008666444569826126,0.0058845579624176025
1730559814869745200,9.3527451171875,0.010703086853027344,0.015598006546497345,0.00834086537361145
1730559814879773200,9.362773193359375,-0.0012531280517578125,-0.0011946558952331543,0.0010747164487838745
1730559814889803500,9.372803466796874,0.0011262893676757812,0.003602169454097748,0.01036861538887024
1730559814899831800,9.382831787109374,0.0034637451171875,0.015385761857032776,-0.008655652403831482
1730559814909859800,9.39285986328125,0.005761146545410156,0.005560934543609619,0.0009026378393173218
1730559814919888100,9.40288818359375,-0.006114006042480469,-0.01823127269744873,0.0008800327777862549
1730559814929894700,9.412894775390624,-0.006012916564941406,-0.015610769391059875,-0.0014457255601882935
1730559814939920600,9.422920654296876,-0.0035600662231445312,-0.001260809600353241,0.01751790940761566
1730559814949974800,9.432974853515624,-0.0035037994384765625,-0.015465453267097473,0.0008331835269927979
1730559814960003600,9.443003662109374,-0.005801200866699219,-0.0011179372668266296,0.0031662732362747192
1730559814970032000,9.4530322265625,0.003719329833984375,0.006029665470123291,-0.003961130976676941
1730559814980061000,9.46306103515625,0.010725021362304688,0.00845293328166008,0.005519971251487732
1730559814990093600,9.473093505859374,-0.013007164001464844,0.0037703216075897217,0.003013715147972107
1730559815000123000,9.483122802734375,-0.0010128021240234375,-0.00810706615447998,-0.006465330719947815
1730559815010126600,9.493126708984375,0.015491485595703125,-0.0034018680453300476,-0.00160159170627594
1730559815020153300,9.5031533203125,-0.013032913208007812,-0.0009779781103134155,0.010195404291152954
1730559815030206200,9.513206298828125,0.003673553466796875,-0.010425418615341187,0.0053063929080963135
1730559815040235500,9.523235595703126,0.00125885009765625,-0.005581863224506378,-0.00667145848274231
1730559815050261800,9.53326171875,-0.008180618286132812,-0.0008166804909706116,0.007410615682601929
1730559815060290800,9.543290771484376,-0.0033321380615234375,-0.005450792610645294,0.004872173070907593
1730559815070316500,9.553316650390625,-0.005629539489746094,-0.0007948726415634155,-0.007150530815124512
1730559815080345300,9.563345458984376,0.0015316009521484375,-0.0008747652173042297,0.00002746284008026123
1730559815090378000,9.5733779296875,0.010928153991699219,-0.007864639163017273,0.009493201971054077
1730559815100407000,9.583406982421875,-0.0033893585205078125,0.01106969267129898,0.016445592045783997
1730559815110430700,9.5934306640625,-0.01275634765625,-0.0008834004402160645,0.009200051426887512
1730559815120459300,9.603459228515625,-0.0007638931274414062,-0.012583136558532715,0.0019206404685974121
1730559815130488800,9.61348876953125,0.003964424133300781,0.0017210394144058228,0.0017260313034057617
1730559815140517400,9.623517333984376,0.0015420913696289062,-0.0006009787321090698,-0.0029700100421905518
1730559815150550800,9.63355078125,0.010936737060546875,-0.00990033894777298,-0.00041775405406951904
1730559815160580000,9.643580078125,0.006043434143066406,-0.0003532096743583679,-0.00041835010051727295
1730559815170611700,9.65361181640625,0.008297920227050781,0.0020175352692604065,0.00905446708202362
1730559815180641000,9.66364111328125,-0.010685920715332031,-0.002610832452774048,-0.0027779042720794678
1730559815190649900,9.67364990234375,-0.02228832244873047,0.013983827084302902,-0.004991680383682251
1730559815200677000,9.683677001953125,-0.0054302215576171875,-0.012253686785697937,-0.0048128217458724976
1730559815210714400,9.69371435546875,0.0252838134765625,-0.0146537646651268,-0.004792362451553345
1730559815220742700,9.70374267578125,0.006022453308105469,0.013710077852010727,-0.019113540649414062
1730559815230779100,9.713779052734376,-0.0034990310668945312,-0.0195920392870903,-0.00006268918514251709
1730559815240808200,9.72380810546875,0.0036249160766601562,-0.014647506177425385,-0.000017762184143066406
1730559815250803200,9.73380322265625,0.0012102127075195312,0.004400007426738739,-0.0024841725826263428
1730559815260829000,9.743828857421875,-0.003520965576171875,0.0019309371709823608,-0.0024503320455551147
1730559815270893300,9.753893310546875,-0.010529518127441406,-0.010023407638072968,-0.00006151199340820312
1730559815280923000,9.7639228515625,0.0014247894287109375,0.004236921668052673,0.006946861743927002
1730559815290949600,9.77394970703125,-0.008020401000976562,-0.007704697549343109,0.004467591643333435
1730559815300978700,9.783978759765626,-0.005528450012207031,-0.002747558057308197,-0.005139604210853577
1730559815311004000,9.79400390625,-0.017213821411132812,0.0019692257046699524,0.0020052194595336914
1730559815321032700,9.80403271484375,-0.0145721435546875,-0.0006147325038909912,-0.0074580758810043335
1730559815331069000,9.81406884765625,0.013937950134277344,0.0063713788986206055,0.004385069012641907
1730559815341098500,9.824098388671874,0.023130416870117188,-0.010211043059825897,0.006608545780181885
1730559815351120600,9.83412060546875,0.0038995742797851562,0.006408020853996277,-0.007590845227241516
1730559815361149400,9.8441494140625,0.008545875549316406,-0.0005984976887702942,0.002002224326133728
1730559815371173400,9.85417333984375,0.008404731750488281,-0.009739167988300323,0.00908014178276062
1730559815381197600,9.864197509765624,-0.0058689117431640625,-0.004801131784915924,0.004210472106933594
1730559815391226000,9.87422607421875,-0.00341796875,-0.0047601088881492615,-0.005185604095458984
1730559815401243400,9.884243408203124,-0.0057163238525390625,0.007056973874568939,-0.00746232271194458
1730559815411271000,9.89427099609375,-0.022108078002929688,0.01165860891342163,-0.002687215805053711
1730559815421308700,9.90430859375,0.006525993347167969,0.016084574162960052,-0.009664520621299744
1730559815431337200,9.914337158203125,-0.0030059814453125,0.00635402649641037,-0.011866569519042969
1730559815441369600,9.92436962890625,-0.0005979537963867188,0.015730343759059906,-0.0023069381713867188
1730559815451398700,9.934398681640625,0.0041255950927734375,0.017836537212133408,0.0070948004722595215
1730559815461431000,9.94443115234375,-0.012430191040039062,-0.00359981507062912,-0.0025058388710021973
1730559815471460400,9.95446044921875,-0.012218475341796875,-0.008344121277332306,-0.00974591076374054
1730559815481484300,9.964484375,0.0021190643310546875,-0.012955181300640106,-0.0025757253170013428
1730559815491513000,9.97451318359375,0.0044384002685546875,0.0037072449922561646,0.01635533571243286
1730559815501535200,9.98453515625,-0.00034999847412109375,0.006013818085193634,-0.0026137828826904297
1730559815511563300,9.994563232421875,-0.007411956787109375,-0.00815293937921524,-0.009539872407913208
1730559815521597700,10.00459765625,-0.00022125244140625,0.0014640167355537415,0.007099166512489319
1730559815531626500,10.01462646484375,-0.01435089111328125,0.0038021206855773926,0.00932745635509491
1730559815541621500,10.02462158203125,0.009446144104003906,0.01317029818892479,-0.0026657283306121826
1730559815551646700,10.034646728515625,0.021065711975097656,0.0011857151985168457,-0.0025767385959625244
1730559815561704000,10.044703857421876,-0.0004863739013671875,-0.008247047662734985,-0.007201299071311951
1730559815571732500,10.054732421875,0.004235267639160156,-0.019774600863456726,0.002280980348587036
1730559815581760500,10.064760498046875,-0.017034530639648438,0.0018173903226852417,0.0022350549697875977
1730559815591789000,10.0747890625,0.018586158752441406,-0.00286063551902771,-0.002624496817588806
1730559815601826600,10.08482666015625,0.0017862319946289062,-0.009815044701099396,0.0068861693143844604
1730559815611856100,10.094856201171876,0.0017547607421875,0.011403769254684448,0.002104148268699646
1730559815621893600,10.1048935546875,-0.005344390869140625,0.00881439819931984,-0.00490260124206543
1730559815631923700,10.114923828125,-0.014675140380859375,0.01820150390267372,0.0021854043006896973
1730559815641944000,10.124944091796875,-0.0073604583740234375,0.013197433203458786,0.00674872100353241
1730559815651973000,10.13497314453125,0.0068950653076171875,-0.008262872695922852,0.0019175410270690918
1730559815661995500,10.14499560546875,-0.0026426315307617188,-0.010467946529388428,-0.0004772096872329712
1730559815672024000,10.155024169921875,0.0021123886108398438,-0.0032692700624465942,-0.019322112202644348
1730559815682044200,10.165044189453125,0.011500358581542969,-0.019591040909290314,-0.00482313334941864
1730559815692072000,10.175072021484375,0.008953094482421875,0.0017883852124214172,0.014041438698768616
1730559815702115800,10.18511572265625,-0.005330085754394531,0.013444345444440842,-0.0003336220979690552
1730559815712145200,10.195145263671876,-0.00052642822265625,-0.0008497610688209534,-0.0028465837240219116
1730559815722158000,10.205157958984374,0.0041980743408203125,-0.01034972071647644,-0.0030135363340377808
1730559815732185900,10.215185791015625,-0.005295753479003906,0.011035747826099396,0.006503567099571228
1730559815742234600,10.225234619140625,0.011281013488769531,0.013325195759534836,0.0041365474462509155
1730559815752264400,10.235264404296874,-0.007750511169433594,-0.005678065121173859,-0.0006511062383651733
1730559815762295800,10.2452958984375,-0.0052642822265625,0.0014925748109817505,0.0016552507877349854
1730559815772325600,10.25532568359375,-0.0004730224609375,0.010694421827793121,0.008945822715759277
1730559815782331100,10.2653310546875,0.013665199279785156,0.003045305609703064,-0.0029893964529037476
1730559815792358700,10.275358642578125,0.006369590759277344,0.007563132792711258,0.0018161535263061523
1730559815802377000,10.285376953125,0.010974884033203125,0.009801924228668213,0.0017776340246200562
1730559815812403700,10.29540380859375,0.013148307800292969,0.009754933416843414,0.004044592380523682
1730559815822457600,10.30545751953125,-0.003559112548828125,0.002697780728340149,-0.005451291799545288
1730559815832487200,10.315487060546875,0.001209259033203125,0.014392867684364319,-0.005263715982437134
1730559815842514700,10.3255146484375,0.0035429000854492188,-0.002432696521282196,-0.005133122205734253
1730559815852543700,10.335543701171876,-0.010650634765625,0.016512345522642136,0.009129062294960022
1730559815862542800,10.34554296875,0.0013103485107421875,-0.0024421140551567078,-0.0030154287815093994
1730559815872569000,10.355569091796875,0.0036458969116210938,0.00001874566078186035,-0.0053797513246536255
1730559815882617900,10.365617919921876,0.008294105529785156,-0.004729434847831726,0.0042294710874557495
1730559815892646400,10.375646484375,0.005803108215332031,-0.006996922194957733,0.001691564917564392
1730559815902675700,10.38567578125,-0.01784992218017578,-0.013987213373184204,-0.0030553489923477173
1730559815912704000,10.3957041015625,0.0036468505859375,-0.020805664360523224,0.004107579588890076
1730559815922735600,10.405735595703124,-0.0011234283447265625,-0.013329915702342987,0.00869053602218628
1730559815932764700,10.4157646484375,-0.02230072021484375,-0.0012170001864433289,0.0036708861589431763
1730559815942800600,10.425800537109374,-0.007792472839355469,0.0011704936623573303,-0.0012127012014389038
1730559815952830200,10.435830322265625,-0.012373924255371094,-0.00825498253107071,-0.0011986494064331055
1730559815962850000,10.44585009765625,-0.0357208251953125,-0.0036051571369171143,-0.008409261703491211
1730559815972878600,10.455878662109376,0.00492095947265625,0.005784094333648682,-0.013039961457252502
1730559815982896000,10.465896240234375,0.014256477355957031,-0.006231419742107391,0.010881468653678894
1730559815992923600,10.475923583984375,-0.016605377197265625,0.010373085737228394,0.003729388117790222
1730559816002966300,10.48596630859375,-0.013974189758300781,-0.01334863156080246,-0.0033565908670425415
1730559816012995300,10.495995361328125,-0.009032249450683594,-0.022641584277153015,0.0062173157930374146
1730559816023026400,10.5060263671875,-0.008883476257324219,0.003556296229362488,-0.0009084492921829224
1730559816033055500,10.516055419921875,-0.0110931396484375,0.001202508807182312,-0.0007979869842529297
1730559816043091000,10.526091064453125,-0.013263702392578125,-0.003519408404827118,0.003918200731277466
1730559816053120800,10.536120849609375,0.0010929107666015625,-0.0034503042697906494,0.0014376193284988403
1730559816063130600,10.546130615234375,0.001079559326171875,0.013053778558969498,0.0011986494064331055
1730559816073158700,10.55615869140625,-0.008358001708984375,0.008030768483877182,0.0034224092960357666
1730559816083200800,10.56620068359375,-0.008219718933105469,-0.008529789745807648,0.005764871835708618
1730559816093230000,10.57622998046875,0.006046295166015625,0.010469786822795868,-0.0035535693168640137
1730559816103249000,10.586248779296875,0.013013839721679688,0.012608382850885391,0.008223533630371094
1730559816113277200,10.596277099609376,0.010437965393066406,0.002932243049144745,0.005825862288475037
1730559816123314000,10.60631396484375,-0.0015163421630859375,-0.006474286317825317,-0.005952656269073486
1730559816133343000,10.616343017578124,-0.006203651428222656,0.0008167251944541931,0.0013096481561660767
1730559816143367400,10.626367431640626,-0.013170242309570312,0.0008135512471199036,-0.003275960683822632
1730559816153396200,10.636396240234374,-0.010594367980957031,-0.004005461931228638,-0.007992565631866455
1730559816163430400,10.646430419921876,0.006070137023925781,-0.013301104307174683,0.006317302584648132
1730559816173459500,10.65645947265625,-0.022299766540527344,0.01990673318505287,-0.01018206775188446
1730559816183467800,10.6664677734375,0.01811695098876953,0.019531358033418655,0.0017052441835403442
1730559816193494800,10.676494873046876,0.017815589904785156,-0.004390068352222443,-0.0030936747789382935
1730559816203573800,10.68657373046875,-0.0013256072998046875,0.005012989044189453,-0.003049716353416443
1730559816213606100,10.696606201171875,-0.003658294677734375,-0.004535399377346039,-0.005414515733718872
1730559816223594000,10.706593994140626,0.01760387420654297,0.005027972161769867,0.0017356127500534058
1730559816233621800,10.716621826171876,-0.010951995849609375,0.009459808468818665,-0.010285884141921997
1730559816243657000,10.726656982421876,-0.0060577392578125,0.00690755620598793,0.0016561895608901978
1730559816253685500,10.736685546875,0.01995372772216797,0.013768382370471954,0.008688077330589294
1730559816263708700,10.746708740234375,0.0031290054321289062,-0.005243487656116486,-0.007798373699188232
1730559816273736700,10.75673681640625,0.007786750793457031,-0.012212373316287994,0.004205137491226196
1730559816283754000,10.76675390625,0.010013580322265625,-0.00026872754096984863,-0.0006347000598907471
1730559816293781000,10.776781005859375,0.00042438507080078125,-0.000150240957736969,-0.012409895658493042
1730559816303792000,10.786792236328125,0.009840011596679688,-0.0023883208632469177,0.001974537968635559
1730559816313817300,10.7968173828125,0.009676933288574219,0.009495101869106293,-0.00042082369327545166
1730559816323857000,10.80685693359375,0.002445220947265625,0.0021780580282211304,0.004445314407348633
1730559816333883600,10.816883544921875,-0.01644134521484375,-0.0049651265144348145,0.006771013140678406
1730559816343939600,10.826939697265624,-0.0043888092041015625,0.007009837776422501,-0.0027720779180526733
1730559816353969400,10.836969482421875,0.0051059722900390625,0.006848137825727463,0.00673927366733551
1730559816363992600,10.84699267578125,0.021509170532226562,-0.007443122565746307,0.009025707840919495
1730559816374021600,10.857021728515624,0.023507118225097656,-0.0096077099442482,-0.0005535483360290527
1730559816384034300,10.867034423828125,-0.000438690185546875,-0.004671938717365265,-0.012381106615066528
1730559816394061600,10.8770615234375,-0.007496833801269531,-0.013950616121292114,-0.01218162477016449
1730559816404086500,10.88708642578125,-0.0073699951171875,-0.0043877288699150085,-0.0026674121618270874
1730559816414113800,10.89711376953125,0.002178192138671875,0.0028684884309768677,0.004332989454269409
1730559816424161300,10.907161376953125,-0.0025730133056640625,0.005082949995994568,0.0020529478788375854
1730559816434190600,10.917190673828125,0.002178192138671875,0.0002963617444038391,-0.00018972158432006836
1730559816444232400,10.927232421875,-0.0025701522827148438,0.004856280982494354,0.006871908903121948
1730559816454262800,10.9372626953125,-0.0025272369384765625,0.014208085834980011,0.002038329839706421
1730559816464267300,10.947267333984374,0.014002799987792969,0.014034546911716461,-0.009729400277137756
1730559816474295300,10.95729541015625,0.006703376770019531,0.008997529745101929,-0.0025080740451812744
1730559816484324000,10.967323974609375,-0.0028285980224609375,0.013465575873851776,0.004437163472175598
1730559816494352100,10.97735205078125,-0.000423431396484375,-0.014963515102863312,0.0043035149574279785
1730559816504367000,10.9873671875,0.013715744018554688,-0.005228489637374878,0.006631523370742798
1730559816514393600,10.9973935546875,0.013487815856933594,0.004186645150184631,0.008816540241241455
1730559816524450000,11.007449951171875,-0.0032281875610351562,0.008733443915843964,0.008713260293006897
1730559816534480000,11.01747998046875,0.0038890838623046875,-0.0032831430435180664,0.006359964609146118
1730559816544511200,11.02751123046875,0.0038242340087890625,-0.015099473297595978,0.0015349239110946655
1730559816554541000,11.037541015625,-0.005660057067871094,0.022954266518354416,0.0038048475980758667
1730559816564567000,11.047567138671875,-0.005562782287597656,-0.012702055275440216,-0.005793020129203796
1730559816574596600,11.0575966796875,-0.0007572174072265625,0.003854893147945404,0.005970224738121033
1730559816584627200,11.067627197265624,-0.005455970764160156,0.0014490559697151184,0.019997283816337585
1730559816594656800,11.07765673828125,-0.005366325378417969,-0.003222815692424774,0.0008636415004730225
1730559816604635600,11.0876357421875,-0.005279541015625,-0.012686431407928467,-0.0014118105173110962
1730559816614660000,11.09766015625,-0.00048351287841796875,-0.005397818982601166,0.005825862288475037
1730559816624732700,11.107732666015625,0.008944511413574219,0.0017185211181640625,0.0034696459770202637
1730559816634762000,11.117761962890626,0.011147499084472656,-0.015050046145915985,0.012929126620292664
1730559816644773600,11.127773681640624,0.013314247131347656,0.003952406346797943,-0.003731563687324524
1730559816654801200,11.13780126953125,0.008380889892578125,-0.0008659586310386658,-0.0012699216604232788
1730559816664844000,11.147843994140626,-0.005889892578125,0.004026874899864197,0.0034029483795166016
1730559816674873000,11.157873046875,-0.012859344482421875,0.006326962262392044,-0.003624454140663147
1730559816684899300,11.1678994140625,0.010912895202636719,-0.010202936828136444,-0.0012674778699874878
1730559816694928100,11.17792822265625,0.0036678314208984375,-0.009917668998241425,0.008064791560173035
1730559816704952600,11.18795263671875,0.0012531280517578125,0.013865597546100616,-0.003907188773155212
1730559816714980900,11.19798095703125,0.0035915374755859375,0.008984416723251343,-0.006361275911331177
1730559816725002200,11.208002197265625,-0.010600090026855469,-0.0029327571392059326,-0.006314903497695923
1730559816735030000,11.218030029296875,0.013135910034179688,0.0018389001488685608,0.003049701452255249
1730559816745069600,11.228069580078126,0.008206367492675781,0.006527502089738846,0.0029902756214141846
1730559816755098400,11.238098388671874,0.005710601806640625,0.01579965278506279,0.0006805658340454102
1730559816765095000,11.248094970703125,0.005616188049316406,-0.003399953246116638,-0.00881226360797882
1730559816775120400,11.258120361328125,-0.006256103515625,0.0034725964069366455,0.00540769100189209
1730559816785177300,11.26817724609375,-0.008503913879394531,0.005779590457677841,0.0028498321771621704
1730559816795206000,11.278205810546876,0.0010595321655273438,0.0008789524435997009,-0.008983448147773743
1730559816805253000,11.288253173828124,-0.006023406982421875,-0.008704394102096558,-0.008945763111114502
1730559816815283700,11.29828369140625,0.0035009384155273438,-0.008604221045970917,-0.013568535447120667
1730559816825293800,11.3082939453125,-0.008337020874023438,0.0032264292240142822,0.005546689033508301
1730559816835322400,11.318322265625,-0.0034894943237304688,-0.010945633053779602,0.003195717930793762
1730559816845347800,11.328347900390625,-0.008142471313476562,-0.006035707890987396,0.0055435895919799805
1730559816855376000,11.3383759765625,-0.008008003234863281,0.0010949820280075073,-0.006281420588493347
1730559816865404200,11.348404052734375,-0.0008087158203125,-0.006136097013950348,-0.0038811862468719482
1730559816875432400,11.358432373046876,-0.010220527648925781,-0.0036678090691566467,-0.015446886420249939
1730559816885464600,11.368464599609375,-0.0076961517333984375,0.0012232586741447449,-0.003314495086669922
1730559816895493400,11.378493408203125,0.015981674194335938,0.0057679153978824615,-0.0030603259801864624
1730559816905530400,11.3885302734375,-0.0007696151733398438,0.007985979318618774,-0.007883906364440918
1730559816915560000,11.398559814453124,-0.0007543563842773438,0.002997949719429016,-0.00555989146232605
1730559816925583400,11.408583251953125,-0.000743865966796875,-0.008922986686229706,-0.00306779146194458
1730559816935612400,11.4186123046875,-0.005443572998046875,-0.013629183173179626,0.008753642439842224
1730559816945641000,11.428640869140626,-0.014774322509765625,0.0030456557869911194,0.006244286894798279
1730559816955669800,11.438669677734374,-0.00039768218994140625,-0.003957793116569519,0.0039321184158325195
1730559816965708500,11.44870849609375,0.001964569091796875,-0.0015776380896568298,-0.0008524805307388306
1730559816975738400,11.45873828125,0.00664520263671875,0.014844533056020737,0.0014058053493499756
1730559816985762600,11.468762451171875,0.011246681213378906,-0.008843466639518738,0.008441522717475891
1730559816995791600,11.47879150390625,0.01812744140625,-0.00392267107963562,-0.005892306566238403
1730559817005821000,11.488821044921876,0.017822265625,0.026672031730413437,0.008435040712356567
1730559817015850200,11.498850341796874,-0.0036725997924804688,0.00503777340054512,0.012894108891487122
1730559817025851600,11.5088515625,0.008165359497070312,-0.027958638966083527,0.008064478635787964
1730559817035878100,11.518878173828124,-0.0013952255249023438,0.005498196929693222,0.005670860409736633
1730559817045915100,11.5289150390625,-0.020216941833496094,0.005367543548345566,0.003213539719581604
1730559817055942700,11.538942626953125,-0.010457038879394531,-0.01596108078956604,0.0007971674203872681
1730559817065974500,11.548974609375,0.0062084197998046875,0.007820509374141693,0.0006726831197738647
1730559817076002600,11.55900244140625,0.006107330322265625,-0.0015156939625740051,-0.006465286016464233
1730559817086044700,11.569044677734375,-0.0034160614013671875,-0.008652791380882263,-0.008773580193519592
1730559817096074000,11.579073974609376,0.015485763549804688,0.010139267891645432,-0.003975912928581238
1730559817106104300,11.589104248046874,0.0010938644409179688,-0.006509475409984589,-0.008577242493629456
1730559817116134000,11.5991337890625,-0.0059909820556640625,-0.003936074674129486,0.003334343433380127
1730559817126158800,11.609158935546875,0.0035314559936523438,0.0007463842630386353,0.012692838907241821
1730559817136188000,11.61918798828125,-0.0012350082397460938,-0.004017375409603119,0.0005404502153396606
1730559817146204700,11.62920458984375,-0.012989044189453125,-0.0014809295535087585,-0.004291072487831116
1730559817156232400,11.639232421875,-0.010416984558105469,-0.020342200994491577,0.0028392821550369263
1730559817166271200,11.649271240234375,-0.000820159912109375,0.0037185847759246826,0.009850770235061646
1730559817176300000,11.659300048828126,-0.007872581481933594,-0.0009416863322257996,0.007374554872512817
1730559817186332400,11.66933251953125,-0.00302886962890625,-0.007930457592010498,-0.009297102689743042
1730559817196361500,11.679361572265625,0.004090309143066406,0.013466492295265198,-0.01626788079738617
1730559817206391800,11.689391845703126,0.011091232299804688,0.008488364517688751,-0.004330739378929138
1730559817216421000,11.699421142578124,-0.0008707046508789062,-0.02241934835910797,0.002696990966796875
1730559817226444000,11.709444091796875,0.013278961181640625,0.013352498412132263,-0.013895973563194275
1730559817236472600,11.71947265625,0.005991935729980469,0.0038770437240600586,-0.0018415898084640503
1730559817246491000,11.729490966796876,0.001186370849609375,0.006231363862752914,0.012108027935028076
1730559817256518700,11.7395185546875,-0.0011854171752929688,-0.007938966155052185,0.004677578806877136
1730559817266568200,11.749568115234375,-0.0035181045532226562,-0.0006787404417991638,-0.004934757947921753
1730559817276598000,11.759597900390625,0.0059642791748046875,-0.0006075501441955566,0.004561200737953186
1730559817286591700,11.769591796875,0.0035104751586914062,-0.017180465161800385,0.0020697712898254395
1730559817296618000,11.779617919921876,-0.0012578964233398438,-0.01227610558271408,0.004279345273971558
1730559817306648300,11.7896484375,-0.020078659057617188,-0.009706676006317139,-0.01003730297088623
1730559817316674800,11.7996748046875,0.006169319152832031,-0.00011571496725082397,0.004202723503112793
1730559817326729500,11.8097294921875,-0.010420799255371094,-0.0024565160274505615,-0.0029932111501693726
1730559817336759000,11.819759033203125,-0.007890701293945312,-0.011773250997066498,0.0017606168985366821
1730559817346780000,11.82977978515625,-0.0030469894409179688,-0.018685080111026764,-0.007802441716194153
1730559817356808400,11.839808349609376,-0.012413978576660156,-0.006792522966861725,-0.014954209327697754
1730559817366848000,11.849847900390625,-0.0027818679809570312,0.026310376822948456,-0.005445793271064758
1730559817376877800,11.8598779296875,0.016111373901367188,0.00944509357213974,-0.0007035881280899048
1730559817386901200,11.8699013671875,0.011132240295410156,-0.01682266592979431,0.006314486265182495
1730559817396930300,11.879930419921875,0.0038814544677734375,0.006917927414178848,0.001385912299156189
1730559817406957600,11.88995751953125,0.015597343444824219,-0.007321566343307495,0.0012509822845458984
1730559817416986400,11.899986328125,0.017694473266601562,-0.01650898903608322,-0.008200421929359436
1730559817427012400,11.910012451171875,0.0079803466796875,-0.011509865522384644,0.003603324294090271
1730559817437041200,11.920041259765625,0.0007791519165039062,-0.004239670932292938,0.003587499260902405
1730559817447042300,11.930042236328125,0.0007638931274414062,0.007618088275194168,0.0012672245502471924
1730559817457068000,11.940068115234375,0.012529373168945312,0.012159738689661026,-0.0011695027351379395
1730559817467114000,11.950114013671875,0.0005426406860351562,0.00034653395414352417,-0.008172422647476196
1730559817477141800,11.960141845703125,0.0028905868530273438,0.0026067420840263367,-0.008094891905784607
1730559817487195600,11.970195556640626,0.005196571350097656,0.0024722889065742493,-0.007915273308753967
1730559817497226000,11.98022607421875,0.012176513671875,-0.0069795772433280945,-0.005435347557067871
1730559817507242000,11.990241943359376,0.007262229919433594,0.0049744173884391785,0.0017651021480560303
1730559817517271000,12.00027099609375,-0.0022859573364257812,0.009455308318138123,0.008949220180511475
