time,seconds_elapsed,z,y,x
1730559805583402500,0.066402587890625,0.034620072692632675,-0.10605726391077042,-0.07955959439277649
1730559805593352000,0.07635205078125,0.06710968166589737,0.04367455467581749,-0.03908073529601097
1730559805603399000,0.08639892578125,0.08095771074295044,0.2681058347225189,-0.05612446367740631
1730559805613429800,0.0964296875,0.11990529298782349,0.14547088742256165,-0.09287500381469727
1730559805623460900,0.1064609375,0.13748162984848022,0.03515268862247467,-0.09766855090856552
1730559805633503500,0.11650341796875,0.08095771074295044,0.13055762648582458,-0.11797455698251724
1730559805643512600,0.1265126953125,0.035685304552316666,0.14120995998382568,-0.1424749195575714
1730559805653545500,0.13654541015625,0.02023942768573761,0.1076551154255867,-0.1643121987581253
1730559805663569000,0.14656884765625,-0.004327509086579084,0.07463289052248001,-0.18348638713359833
1730559805673570000,0.156570068359375,-0.02989310212433338,0.01810896210372448,-0.17017097771167755
1730559805683593500,0.166593505859375,-0.04640421271324158,-0.02663082629442215,-0.13768136501312256
1730559805693665300,0.176665283203125,-0.03681711480021477,-0.0015978495357558131,-0.11524489521980286
1730559805703704800,0.186704833984375,-0.002197043038904667,0.04900071769952774,-0.09553808718919754
1730559805713742000,0.1967421875,0.02769605815410614,0.08421998471021652,-0.05505923181772232
1730559805723780900,0.20678076171875,0.029293907806277275,0.09540493041276932,-0.02197043038904667
1730559805733770500,0.2167705078125,0.032489608973264694,0.1076551154255867,-0.0001331541279796511
1730559805743789600,0.22678955078125,0.047402869910001755,0.14600349962711334,0.0238345880061388
1730559805753844200,0.23684423828125,0.051663801074028015,0.1822880059480667,0.039813082665205
1730559805763877600,0.246877685546875,0.06284874677658081,0.183885857462883,0.03874785080552101
1730559805773891300,0.256891357421875,0.07829462736845016,0.15352670848369598,0.004127778112888336
1730559805783916800,0.266916748046875,0.08308817446231842,0.09061138331890106,-0.060918014496564865
1730559805793955600,0.27695556640625,0.07882724702358246,0.018641578033566475,-0.12330072373151779
1730559805803986400,0.286986328125,0.0750989317893982,-0.047469448298215866,-0.16005125641822815
1730559805814002400,0.29700244140625,0.07137060910463333,-0.11031819134950638,-0.17389929294586182
1730559805824027400,0.30702734375,0.07669677585363388,-0.1418091505765915,-0.16750788688659668
1730559805834059500,0.3170595703125,0.08149032294750214,-0.12310098856687546,-0.13874660432338715
1730559805844087300,0.32708740234375,0.07829462736845016,-0.07995905727148056,-0.10192948579788208
1730559805854145500,0.3371455078125,0.07722939550876617,-0.047469448298215866,-0.07529865950345993
1730559805864185600,0.347185546875,0.10812114924192429,-0.04800206422805786,-0.09820117056369781
1730559805874178600,0.357178466796875,0.1390794813632965,-0.07516550272703171,-0.164844810962677
1730559805884199700,0.36719970703125,0.16943863034248352,-0.1081877276301384,-0.21550995111465454
1730559805894232300,0.377232421875,0.18541713058948517,-0.13435252010822296,-0.2293579876422882
1730559805904258000,0.387258056640625,0.16357985138893127,-0.1524614691734314,-0.25598880648612976
1730559805914300000,0.3972998046875,0.1497318148612976,-0.18601632118225098,-0.31411057710647583
1730559805924332000,0.40733203125,0.17742787301540375,-0.26331228017807007,-0.36257869005203247
1730559805934331600,0.41733154296875,0.19553683698177338,-0.3459344208240509,-0.3705679476261139
1730559805944350700,0.427350830078125,0.16890601813793182,-0.3448691964149475,-0.3481980562210083
1730559805954421500,0.43742138671875,0.14600349962711334,-0.30964991450309753,-0.3045234978199005
1730559805964461300,0.44746142578125,0.1390794813632965,-0.27502983808517456,-0.2293579876422882
1730559805974475000,0.45747509765625,0.12416622787714005,-0.18548369407653809,-0.1541924774646759
1730559805984504300,0.46750439453125,0.13109023869037628,0.0213046595454216,-0.11690932512283325
1730559805994528800,0.47752880859375,0.15718844532966614,0.24573594331741333,-0.06251586228609085
1730559806004557600,0.4875576171875,0.16517770290374756,0.4674375653266907,0.005193010903894901
1730559806014594300,0.49759423828125,0.15292751789093018,0.6571822166442871,0.01744319126009941
1730559806024623900,0.507623779296875,0.14387303590774536,0.7834789156913757,-0.057722315192222595
1730559806034651000,0.51765087890625,0.13481855392456055,0.8218938708305359,-0.22562967240810394
1730559806044680200,0.52768017578125,0.14120995998382568,0.7935985922813416,-0.467038094997406
1730559806054701800,0.537701904296875,0.3655746579170227,0.5985277891159058,-0.6487934589385986
1730559806064730400,0.54773046875,0.8298165202140808,0.2259625494480133,-0.667967677116394
1730559806074766300,0.557766357421875,1.023289442062378,0.17749445140361786,-0.6829475164413452
1730559806084795600,0.567795654296875,0.9726908802986145,0.1828206181526184,-0.7042521834373474
1730559806094820600,0.577820556640625,0.820762038230896,0.07090457528829575,-0.7874069213867188
1730559806104849400,0.587849365234375,0.773891806602478,0.13322070240974426,-0.9376713633537292
1730559806114873300,0.597873291015625,0.9001885056495667,0.5841471552848816,-1.0384024381637573
1730559806124901600,0.607901611328125,0.9545819163322449,0.97641921043396,-1.111970067024231
1730559806134929200,0.61792919921875,0.8260881900787354,1.0499868392944336,-1.205244541168213
1730559806144957400,0.62795751953125,0.674225926399231,1.0505194664001465,-1.1945922374725342
1730559806154985000,0.63798486328125,0.5073838233947754,0.8933310508728027,-1.0965242385864258
1730559806165013000,0.648012939453125,0.3037911355495453,0.47968775033950806,-1.0475234985351562
1730559806175023900,0.65802392578125,0.1289597749710083,-0.08315475285053253,-0.9915322065353394
1730559806185050000,0.668050048828125,0.04900071769952774,-0.6832804083824158,-0.9445953965187073
1730559806195104300,0.678104248046875,0.058055199682712555,-1.1513171195983887,-0.9595752358436584
1730559806205133600,0.688133544921875,0.07989247888326645,-1.3666273355484009,-1.088002324104309
1730559806215161300,0.698161376953125,0.060185667127370834,-1.3682252168655396,-1.3246837854385376
1730559806225190400,0.7081904296875,-0.03255618363618851,-1.2669615745544434,-1.6439208984375
1730559806235218700,0.71821875,-0.17702841758728027,-1.1981874704360962,-1.985061764717102
1730559806245247700,0.728247802734375,-0.3038577139377594,-1.2296117544174194,-2.291516065597534
1730559806255276800,0.73827685546875,-0.37422966957092285,-1.3292776346206665,-2.5468389987945557
1730559806265305900,0.748305908203125,-0.3976648151874542,-1.4625649452209473,-2.7238008975982666
1730559806275327700,0.75832763671875,-0.3923386335372925,-1.6437877416610718,-2.808020830154419
1730559806285356000,0.76835595703125,-0.3609142601490021,-1.900175929069519,-2.8096187114715576
1730559806295389000,0.778388916015625,-0.34167349338531494,-2.2204782962799072,-2.750964403152466
1730559806305417500,0.78841748046875,-0.35072797536849976,-2.5152149200439453,-2.6204066276550293
1730559806315444700,0.79844482421875,-0.3774253726005554,-2.654893636703491,-2.345909357070923
1730559806325473300,0.808473388671875,-0.42802393436431885,-2.5759997367858887,-1.93173348903656
1730559806335497200,0.818497314453125,-0.54320228099823,-2.408092498779297,-1.4957202672958374
1730559806345525500,0.828525390625,-0.7232932448387146,-2.4288644790649414,-1.1802116632461548
1730559806355529700,0.83852978515625,-0.8709611296653748,-2.654893636703491,-0.9947279095649719
1730559806365555700,0.8485556640625,-0.9392026662826538,-2.8547580242156982,-0.8854749798774719
1730559806375620000,0.8586201171875,-0.9945947527885437,-3.035980701446533,-0.8353424072265625
1730559806385649700,0.868649658203125,-1.0665645599365234,-3.185246467590332,-0.8534513711929321
1730559806395674600,0.878674560546875,-1.1140340566635132,-3.1585490703582764,-0.9659666419029236
1730559806405704000,0.888703857421875,-1.0964577198028564,-2.841975212097168,-1.1770159006118774
1730559806415729400,0.8987294921875,-1.0069115161895752,-2.2433807849884033,-1.4238170385360718
1730559806425758200,0.90875830078125,-0.8406019806861877,-1.5622308254241943,-1.6343337297439575
1730559806435758800,0.9187587890625,-0.604985773563385,-0.9519188404083252,-1.7430541515350342
1730559806445784800,0.928784912109375,-0.3480648994445801,-0.48874223232269287,-1.6843997240066528
1730559806455843300,0.93884326171875,-0.09547150880098343,-0.2894105017185211,-1.427545428276062
1730559806465872600,0.94887255859375,0.14227518439292908,-0.3363473415374756,-1.0186957120895386
1730559806475905500,0.958905517578125,0.33787858486175537,-0.6241599917411804,-0.5778889060020447
1730559806485935000,0.96893505859375,0.4545882046222687,-1.0169646739959717,-0.22456443309783936
1730559806495958300,0.978958251953125,0.4657731354236603,-1.3234188556671143,-0.054526615887880325
1730559806505987000,0.988987060546875,0.37143343687057495,-1.4369993209838867,-0.12596380710601807
1730559806516013300,0.999013427734375,0.21051667630672455,-1.2909293174743652,-0.4569183886051178
1730559806526041900,1.009041748046875,0.04473978653550148,-0.9519188404083252,-0.9680970907211304
1730559806536067000,1.019067138671875,-0.05332822725176811,-0.587875485420227,-1.47441565990448
1730559806546095400,1.029095458984375,-0.009653674438595772,-0.3128456175327301,-1.7798047065734863
1730559806556126200,1.039126220703125,0.15718844532966614,-0.26384490728378296,-1.8006433248519897
1730559806566154800,1.04915478515625,0.31870439648628235,-0.4525243043899536,-1.5772771835327148
1730559806576194600,1.059194580078125,0.4519250988960266,-0.7888716459274292,-1.1397327184677124
1730559806586224000,1.06922412109375,0.5702325701713562,-1.1997852325439453,-0.60724937915802
1730559806596245000,1.079244873046875,0.6619091629981995,-1.5371978282928467,-0.07263557612895966
1730559806606273800,1.089273681640625,0.657115638256073,-1.6762772798538208,0.3313540518283844
1730559806616272000,1.09927197265625,0.5366777181625366,-1.6373963356018066,0.48594599962234497
1730559806626297600,1.109297607421875,0.4013265371322632,-1.5627634525299072,0.37136685848236084
1730559806636358000,1.11935791015625,0.2930722236633301,-1.5292085409164429,0.048867564648389816
1730559806646387200,1.12938720703125,0.19979776442050934,-1.4322057962417603,-0.3588503897190094
1730559806656374800,1.139374755859375,0.13322070240974426,-1.256841778755188,-0.7090457081794739
1730559806666399700,1.149399658203125,0.09746882319450378,-1.0969237089157104,-0.9121057987213135
1730559806676457200,1.159457275390625,0.09320788830518723,-0.985007643699646,-0.9451280236244202
1730559806686485500,1.169485595703125,0.1278945356607437,-0.8725590109825134,-0.8230922222137451
1730559806696534300,1.1795341796875,0.183286651968956,-0.8048501014709473,-0.599260151386261
1730559806706564600,1.189564697265625,0.08947957307100296,-0.549527108669281,-0.1978670358657837
1730559806716539100,1.1995390625,-0.7318816781044006,1.208307147026062,1.1511174440383911
1730559806726564000,1.209564208984375,-0.3358147144317627,-0.11724220961332321,1.1196930408477783
1730559806736644400,1.219644287109375,0.391206830739975,0.44932860136032104,0.4497280716896057
1730559806746674700,1.2296748046875,0.4119788706302643,1.0025839805603027,0.19653549790382385
1730559806756699100,1.23969921875,0.24353890120983124,1.1038477420806885,0.26264652609825134
1730559806766729000,1.24972900390625,0.38261839747428894,1.4929240942001343,0.29620134830474854
1730559806776739600,1.259739501953125,0.4226312041282654,1.7881933450698853,0.34679993987083435
1730559806786767600,1.269767578125,0.44659894704818726,1.9576985836029053,0.3185712397098541
1730559806796810500,1.279810546875,0.429555207490921,2.0786690711975098,0.2786250114440918
1730559806806813000,1.28981298828125,0.2813546657562256,2.3558294773101807,0.19547025859355927
1730559806816842200,1.29984228515625,0.20891882479190826,3.1388423442840576,0.1474681943655014
1730559806826884000,1.309884033203125,0.2264951765537262,4.110467910766602,0.15545743703842163
1730559806836879000,1.319879150390625,0.2488650679588318,4.856131076812744,0.17256775498390198
1730559806846909700,1.32990966796875,0.30858469009399414,4.88815450668335,0.10326102375984192
1730559806856984600,1.339984619140625,0.2259625494480133,4.091293811798096,0.07663019746541977
1730559806867022600,1.350022705078125,0.011118370108306408,2.769472599029541,-0.004926702938973904
1730559806877057000,1.36005712890625,-0.37369707226753235,1.4385305643081665,-0.14087706804275513
1730559806887069000,1.37006884765625,-0.8069806098937988,0.8698293566703796,-0.20372581481933594
1730559806897101000,1.38010107421875,-1.0468577146530151,0.9519188404083252,-0.31198012828826904
1730559806907110000,1.39010986328125,-1.1625021696090698,1.2962554693222046,-0.31038227677345276
1730559806917139700,1.4001396484375,-1.1678283214569092,1.6533747911453247,-0.2911415100097656
1730559806927164200,1.4101640625,-1.0868040323257446,2.1602261066436768,-0.27995654940605164
1730559806937193700,1.42019384765625,-0.9621051549911499,2.8781931400299072,-0.2506626546382904
1730559806947216600,1.430216552734375,-0.5794202089309692,2.716677188873291,-0.4265592396259308
1730559806957245400,1.440245361328125,0.09746882319450378,0.9359403848648071,-0.568301796913147
1730559806967279000,1.450279052734375,0.4322183132171631,-0.5473966002464294,-0.1754971444606781
1730559806977308400,1.460308349609375,0.5047207474708557,-0.26277968287467957,0.362312376499176
1730559806987330800,1.470330810546875,0.5515909790992737,0.967897355556488,0.7322145700454712
1730559806997359400,1.480359375,0.5244275331497192,2.522138833999634,0.5493939518928528
1730559807007389200,1.49038916015625,0.3453352451324463,2.5003015995025635,-0.5304860472679138
1730559807017417700,1.500417724609375,0.10386022180318832,2.026472568511963,-0.7569811940193176
1730559807027448600,1.510448486328125,0.030359141528606415,1.5280767679214478,-0.1451379954814911
1730559807037477400,1.520477294921875,-0.012316756881773472,2.3414487838745117,0.4310199022293091
1730559807047515400,1.530515380859375,-0.06185009330511093,4.162730693817139,1.0328099727630615
1730559807057545000,1.540544921875,-0.05865439400076866,1.3111686706542969,1.0338752269744873
1730559807067554000,1.550553955078125,-0.08002562820911407,-0.9748879671096802,-0.21604257822036743
1730559807077581800,1.560581787109375,-0.04480636492371559,-0.8890700936317444,-0.9174319505691528
1730559807087619000,1.570619140625,0.008987903594970703,-0.36404338479042053,0.033954303711652756
1730559807097647600,1.580647705078125,0.0057922047562897205,0.6949979662895203,0.19919857382774353
1730559807107673600,1.590673583984375,-0.002197043038904667,0.12150314450263977,0.06324820965528488
1730559807117702000,1.600701904296875,0.003129122080281377,-0.20945143699645996,-0.06943988054990768
1730559807127733800,1.610733642578125,-0.00006657706398982555,0.032489608973264694,0.008388710208237171
1730559807137762600,1.620762451171875,-0.0005991935613565147,0.038881003856658936,0.015312724746763706
1730559807147806200,1.63080615234375,0.00046603946248069406,-0.012782796286046505,-0.004394086077809334
1730559807157836300,1.640836181640625,0.00046603946248069406,0.0063913981430232525,0.001997311832383275
1730559807167853000,1.65085302734375,0.00046603946248069406,0.0053261648863554,0.0014646954368799925
1730559807177881900,1.6608818359375,0.002063889056444168,0.0015978495357558131,-0.0001331541279796511
1730559807187920400,1.67092041015625,-0.00006657706398982555,0.0021304660476744175,0.0025299284607172012
1730559807197950200,1.6809501953125,0.0015312724281102419,0.0026630824431777,-0.000665770610794425
1730559807207976200,1.69097607421875,0.00046603946248069406,0.0010652330238372087,0.0009320789249613881
1730559807218005800,1.701005859375,0.0009986559161916375,0.0015978495357558131,0.0003994623839389533
1730559807228007200,1.711007080078125,0.0025965054519474506,0.0021304660476744175,-0.0001331541279796511
1730559807238034000,1.721033935546875,0.0015312724281102419,0.0021304660476744175,0.0014646954368799925
1730559807248087600,1.731087646484375,-0.00006657706398982555,0.0005326165119186044,0.0009320789249613881
1730559807258116900,1.741116943359375,-0.00006657706398982555,0.0005326165119186044,0.0014646954368799925
1730559807268143400,1.751143310546875,0.00046603946248069406,0.0015978495357558131,-0.000665770610794425
1730559807278172400,1.76117236328125,-0.00006657706398982555,0.0005326165119186044,0.0014646954368799925
1730559807288181800,1.771181640625,-0.0005991935613565147,-0.0010652330238372087,0.0014646954368799925
1730559807298208800,1.781208740234375,-0.0005991935613565147,-0.0010652330238372087,0.0003994623839389533
1730559807308259800,1.791259765625,-0.00006657706398982555,0.0010652330238372087,0.0003994623839389533
1730559807318289400,1.801289306640625,-0.00006657706398982555,0.0021304660476744175,-0.0001331541279796511
1730559807328315100,1.811315185546875,-0.0005991935613565147,0.0005326165119186044,-0.000665770610794425
1730559807338344200,1.82134423828125,0.0015312724281102419,-0.0010652330238372087,0.0009320789249613881
1730559807348370200,1.8313701171875,0.002063889056444168,0,-0.0011983871227130294
1730559807358399000,1.84139892578125,0.0015312724281102419,0.0015978495357558131,-0.0011983871227130294
1730559807368422000,1.851421875,0.0015312724281102419,0,0.0003994623839389533
1730559807378450200,1.8614501953125,0.002063889056444168,0.0005326165119186044,0.0003994623839389533
1730559807388466400,1.871466552734375,0.00046603946248069406,0.0010652330238372087,0.0014646954368799925
1730559807398493400,1.881493408203125,0.0009986559161916375,0.0010652330238372087,0.0003994623839389533
1730559807408542200,1.891542236328125,-0.00006657706398982555,0.0005326165119186044,-0.0001331541279796511
1730559807418571300,1.9015712890625,-0.00113181013148278,-0.0010652330238372087,-0.0011983871227130294
1730559807428600600,1.9116005859375,-0.0005991935613565147,0.0010652330238372087,-0.0001331541279796511
1730559807438629600,1.921629638671875,0.00046603946248069406,0.0005326165119186044,0.0009320789249613881
1730559807448656000,1.93165576171875,-0.0016644266434013844,-0.0010652330238372087,0.0009320789249613881
1730559807458685000,1.941684814453125,-0.00006657706398982555,-0.0005326165119186044,-0.000665770610794425
1730559807468710400,1.95171044921875,0.00046603946248069406,-0.0005326165119186044,-0.0001331541279796511
1730559807478739000,1.961739013671875,0.0009986559161916375,0,-0.000665770610794425
1730559807488766200,1.97176611328125,0.0009986559161916375,0,-0.000665770610794425
1730559807498794800,1.981794677734375,-0.00006657706398982555,0.0005326165119186044,0.0003994623839389533
1730559807508828200,1.991828125,-0.00006657706398982555,0.0010652330238372087,-0.00226362026296556
1730559807518857200,2.001857177734375,-0.00006657706398982555,0,-0.0011983871227130294
1730559807528887300,2.01188720703125,0.0015312724281102419,0.0005326165119186044,0.0014646954368799925
1730559807538916400,2.021916259765625,0.00046603946248069406,0.0005326165119186044,0.0009320789249613881
1730559807548941300,2.03194140625,0.0015312724281102419,-0.0005326165119186044,0.0009320789249613881
1730559807558970000,2.04197021484375,-0.00113181013148278,0.0010652330238372087,-0.0001331541279796511
1730559807569001500,2.05200146484375,0.00046603946248069406,0.0005326165119186044,0.0009320789249613881
1730559807579030500,2.062030517578125,0.00046603946248069406,0.0010652330238372087,0.0003994623839389533
1730559807589036000,2.0720361328125,0.0009986559161916375,-0.0005326165119186044,0.0003994623839389533
1730559807599062800,2.082062744140625,0.00046603946248069406,0.0010652330238372087,0.0003994623839389533
1730559807609112300,2.0921123046875,-0.0005991935613565147,0,-0.000665770610794425
1730559807619141400,2.102141357421875,0.002063889056444168,-0.0015978495357558131,0.0003994623839389533
1730559807629172200,2.112172119140625,0.0015312724281102419,-0.0005326165119186044,-0.000665770610794425
1730559807639201300,2.122201171875,0.0015312724281102419,-0.0010652330238372087,-0.0001331541279796511
1730559807649229600,2.1322294921875,0.0015312724281102419,0,0.0014646954368799925
1730559807659258600,2.142258544921875,0.0009986559161916375,-0.0010652330238372087,0.0009320789249613881
1730559807669281800,2.15228173828125,0.0009986559161916375,-0.0010652330238372087,0.0009320789249613881
1730559807679310300,2.162310302734375,0.0009986559161916375,-0.0031956990715116262,-0.0011983871227130294
1730559807689319200,2.172319091796875,0.0009986559161916375,0,-0.000665770610794425
1730559807699345700,2.182345703125,-0.0005991935613565147,0.0010652330238372087,0.0003994623839389533
1730559807709398500,2.1923984375,0.0015312724281102419,-0.0005326165119186044,0.0009320789249613881
1730559807719427600,2.202427490234375,-0.00006657706398982555,0,0.0014646954368799925
1730559807729456000,2.2124560546875,-0.00006657706398982555,0.0015978495357558131,-0.00226362026296556
1730559807739485200,2.222485107421875,0.002063889056444168,0.0015978495357558131,-0.0011983871227130294
1730559807749489700,2.23248974609375,0.003129122080281377,0.0021304660476744175,0.0003994623839389533
1730559807759516400,2.242516357421875,0.0009986559161916375,0,0.0003994623839389533
1730559807769560000,2.25256005859375,0.0015312724281102419,0.0005326165119186044,-0.0001331541279796511
1730559807779588400,2.26258837890625,0.002063889056444168,0.0010652330238372087,-0.0011983871227130294
1730559807789607400,2.272607421875,0.0015312724281102419,0,-0.0001331541279796511
1730559807799635000,2.282635009765625,-0.0005991935613565147,-0.0015978495357558131,0.0014646954368799925
1730559807809684000,2.29268408203125,-0.0005991935613565147,-0.0015978495357558131,-0.0001331541279796511
1730559807819713500,2.302713623046875,0.0015312724281102419,0,-0.000665770610794425
1730559807829739300,2.3127392578125,0.0009986559161916375,0,0.0009320789249613881
1730559807839768600,2.3227685546875,0.0009986559161916375,0.0010652330238372087,-0.000665770610794425
1730559807849796600,2.332796630859375,0.0015312724281102419,0.0005326165119186044,-0.000665770610794425
1730559807859825700,2.34282568359375,-0.00006657706398982555,0,0.0009320789249613881
1730559807869858000,2.352858154296875,-0.0005991935613565147,-0.0005326165119186044,-0.0001331541279796511
1730559807879887600,2.3628876953125,0.0015312724281102419,0,-0.0017310036346316338
1730559807889925000,2.372925048828125,0.00046603946248069406,0,-0.00226362026296556
1730559807899955500,2.38295556640625,0.00046603946248069406,0.0010652330238372087,-0.0017310036346316338
1730559807909965300,2.39296533203125,0.0009986559161916375,0.0015978495357558131,0.0009320789249613881
1730559807919993600,2.40299365234375,0.00046603946248069406,0.0005326165119186044,0.0003994623839389533
1730559807930003200,2.413003173828125,0.0009986559161916375,-0.0005326165119186044,0.0003994623839389533
1730559807940029400,2.423029541015625,-0.00006657706398982555,-0.0010652330238372087,-0.000665770610794425
1730559807950080300,2.433080322265625,-0.00006657706398982555,0.0005326165119186044,0.0003994623839389533
1730559807960109000,2.443109130859375,0.00046603946248069406,0.0005326165119186044,0.0003994623839389533
1730559807970134500,2.453134521484375,0.0015312724281102419,-0.0010652330238372087,-0.000665770610794425
1730559807980163000,2.4631630859375,0.00046603946248069406,-0.0010652330238372087,-0.0011983871227130294
1730559807990221600,2.4732216796875,0.00046603946248069406,-0.0005326165119186044,-0.0001331541279796511
1730559808000253000,2.4832529296875,-0.00006657706398982555,-0.0005326165119186044,0.0014646954368799925
1730559808010229200,2.493229248046875,0.0009986559161916375,0,-0.000665770610794425
1730559808020255200,2.503255126953125,0.00046603946248069406,-0.0005326165119186044,-0.0011983871227130294
1730559808030311700,2.513311767578125,0.0009986559161916375,0.0010652330238372087,-0.0001331541279796511
1730559808040340700,2.5233408203125,0.0015312724281102419,-0.0005326165119186044,0.001997311832383275
1730559808050359600,2.533359619140625,-0.0005991935613565147,-0.0015978495357558131,-0.0001331541279796511
1730559808060387600,2.5433876953125,-0.0005991935613565147,0,0.0003994623839389533
1730559808070425300,2.55342529296875,0.00046603946248069406,-0.0005326165119186044,0.0003994623839389533
1730559808080454400,2.563454345703125,0.00046603946248069406,0.0005326165119186044,-0.000665770610794425
1730559808090496500,2.57349658203125,-0.00006657706398982555,-0.0005326165119186044,-0.000665770610794425
1730559808100526800,2.58352685546875,-0.00006657706398982555,-0.0005326165119186044,-0.0001331541279796511
1730559808110541600,2.59354150390625,-0.00006657706398982555,0.0005326165119186044,-0.0001331541279796511
1730559808120564000,2.60356396484375,0.0009986559161916375,0,-0.000665770610794425
1730559808130594300,2.61359423828125,0.0025965054519474506,0,-0.00226362026296556
1730559808140621300,2.623621337890625,0.0015312724281102419,0.0015978495357558131,0.0003994623839389533
1730559808150651100,2.633651123046875,0.0009986559161916375,0.0010652330238372087,-0.0001331541279796511
1730559808160691700,2.643691650390625,0.00046603946248069406,-0.0015978495357558131,0.0003994623839389533
1730559808170722800,2.653722900390625,0.00046603946248069406,-0.0005326165119186044,0.0003994623839389533
1730559808180720400,2.663720458984375,0.0009986559161916375,-0.0005326165119186044,0.0014646954368799925
1730559808190748200,2.673748046875,-0.0005991935613565147,0,0.0030625448562204838
1730559808200778500,2.683778564453125,0.0025965054519474506,-0.0015978495357558131,-0.0001331541279796511
1730559808210806500,2.693806640625,0.0025965054519474506,-0.0015978495357558131,-0.000665770610794425
1730559808220837600,2.703837646484375,0.002063889056444168,-0.0005326165119186044,-0.0011983871227130294
1730559808230865700,2.71386572265625,-0.00006657706398982555,0,-0.0001331541279796511
1730559808240892700,2.723892578125,-0.0005991935613565147,0.0005326165119186044,-0.0001331541279796511
1730559808250921000,2.7339208984375,0.00046603946248069406,0,-0.0011983871227130294
1730559808260958000,2.7439580078125,0.00046603946248069406,0.0015978495357558131,0.0009320789249613881
1730559808270987000,2.753987060546875,-0.00113181013148278,0.0010652330238372087,0.0009320789249613881
1730559808280989000,2.763989013671875,0.0015312724281102419,0.0015978495357558131,0.0009320789249613881
1730559808291015200,2.77401513671875,-0.00006657706398982555,0.0026630824431777,0.0003994623839389533
1730559808301081000,2.7840810546875,-0.00113181013148278,0,-0.0001331541279796511
1730559808311111400,2.794111328125,-0.0005991935613565147,-0.0015978495357558131,-0.0011983871227130294
1730559808321118200,2.8041181640625,0.0009986559161916375,0.0005326165119186044,-0.0001331541279796511
1730559808331146200,2.814146240234375,0.0009986559161916375,-0.0010652330238372087,-0.000665770610794425
1730559808341177300,2.82417724609375,0.002063889056444168,-0.0015978495357558131,-0.0001331541279796511
1730559808351205600,2.83420556640625,0.00046603946248069406,0,-0.0027962366584688425
1730559808361246000,2.844245849609375,0.00046603946248069406,0,-0.0001331541279796511
1730559808371275500,2.854275634765625,0.00046603946248069406,-0.0005326165119186044,0.0009320789249613881
1730559808381287200,2.864287109375,0.00046603946248069406,0,0.0009320789249613881
1730559808391315000,2.87431494140625,0.00046603946248069406,0.0015978495357558131,0.0003994623839389533
1730559808401356300,2.884356201171875,-0.0005991935613565147,0.0015978495357558131,-0.000665770610794425
1730559808411385300,2.89438525390625,-0.0005991935613565147,0.0005326165119186044,-0.0001331541279796511
1730559808421419000,2.9044189453125,0.0015312724281102419,0.0005326165119186044,0.0014646954368799925
1730559808431448600,2.914448486328125,0.00046603946248069406,0.0005326165119186044,-0.0017310036346316338
1730559808441480200,2.924480224609375,0.0009986559161916375,0.0010652330238372087,-0.0017310036346316338
1730559808451510000,2.934510009765625,0.00046603946248069406,-0.0021304660476744175,0.001997311832383275
1730559808461543700,2.944543701171875,0.0009986559161916375,-0.0015978495357558131,0.0003994623839389533
1730559808471573800,2.95457373046875,0.00046603946248069406,0.0005326165119186044,-0.0001331541279796511
1730559808481593300,2.96459326171875,0.0009986559161916375,0,0.0003994623839389533
1730559808491622400,2.974622314453125,0.00046603946248069406,-0.0010652330238372087,-0.0001331541279796511
1730559808501627600,2.984627685546875,-0.00006657706398982555,0.0005326165119186044,-0.0011983871227130294
1730559808511654400,2.994654296875,-0.0005991935613565147,0,-0.000665770610794425
1730559808521708000,3.0047080078125,-0.00006657706398982555,-0.0010652330238372087,0.0003994623839389533
1730559808531737300,3.0147373046875,0.0009986559161916375,0.0005326165119186044,0.0003994623839389533
1730559808541740000,3.024739990234375,0.00046603946248069406,0.0005326165119186044,0.0014646954368799925
1730559808551766500,3.0347666015625,-0.00006657706398982555,-0.0005326165119186044,0.0003994623839389533
1730559808561821000,3.044821044921875,0.002063889056444168,0.0010652330238372087,-0.0011983871227130294
1730559808571850500,3.0548505859375,0.0025965054519474506,0,-0.000665770610794425
1730559808581874400,3.06487451171875,0.00046603946248069406,-0.0010652330238372087,-0.000665770610794425
1730559808591903200,3.0749033203125,0.00046603946248069406,0.0015978495357558131,-0.0001331541279796511
1730559808601918000,3.08491796875,-0.0005991935613565147,0,0.0003994623839389533
1730559808611945500,3.094945556640625,-0.00006657706398982555,-0.0005326165119186044,-0.0001331541279796511
1730559808621995800,3.104995849609375,0.0015312724281102419,0.0010652330238372087,0.0003994623839389533
1730559808632025600,3.115025634765625,0.0025965054519474506,0,-0.000665770610794425
1730559808642050800,3.12505078125,-0.00006657706398982555,-0.0005326165119186044,-0.0001331541279796511
1730559808652080000,3.135080078125,-0.0005991935613565147,0,0.0003994623839389533
1730559808662085000,3.145085205078125,-0.0016644266434013844,0,0.0003994623839389533
1730559808672111900,3.15511181640625,0.0015312724281102419,-0.0010652330238372087,-0.00226362026296556
1730559808682165500,3.16516552734375,0.0009986559161916375,0.0015978495357558131,0.0003994623839389533
1730559808692195000,3.175195068359375,0.0025965054519474506,0,0.001997311832383275
1730559808702203000,3.185202880859375,0.002063889056444168,0.0010652330238372087,-0.0001331541279796511
1730559808712230100,3.195230224609375,-0.00006657706398982555,0.0015978495357558131,-0.000665770610794425
1730559808722277600,3.205277587890625,0.0009986559161916375,0.0010652330238372087,-0.0001331541279796511
1730559808732307000,3.215306884765625,0.0009986559161916375,-0.0005326165119186044,-0.0001331541279796511
1730559808742336300,3.225336181640625,0.0015312724281102419,0.0005326165119186044,0.0025299284607172012
1730559808752365800,3.23536572265625,0.00046603946248069406,0.0005326165119186044,-0.0001331541279796511
1730559808762392600,3.245392578125,0.0009986559161916375,0.0005326165119186044,-0.000665770610794425
1730559808772421600,3.255421630859375,-0.00006657706398982555,0.0015978495357558131,-0.000665770610794425
1730559808782448400,3.265448486328125,0.00046603946248069406,0.0005326165119186044,-0.000665770610794425
1730559808792477200,3.275477294921875,-0.00006657706398982555,-0.0005326165119186044,-0.0001331541279796511
1730559808802495500,3.28549560546875,-0.00006657706398982555,0.0010652330238372087,-0.000665770610794425
1730559808812523500,3.2955234375,-0.0005991935613565147,0.0010652330238372087,0.0003994623839389533
1730559808822562300,3.305562255859375,0.00046603946248069406,-0.0005326165119186044,0.0003994623839389533
1730559808832591400,3.31559130859375,0.0009986559161916375,0.0010652330238372087,0.0009320789249613881
1730559808842619000,3.325618896484375,-0.00006657706398982555,0,0.0009320789249613881
1730559808852647700,3.335647705078125,-0.0005991935613565147,-0.0005326165119186044,-0.0001331541279796511
1730559808862659800,3.345659912109375,0.0009986559161916375,0,-0.0011983871227130294
1730559808872686800,3.355686767578125,0.002063889056444168,0.0005326165119186044,-0.0001331541279796511
1730559808882734300,3.365734375,0.00046603946248069406,0.0005326165119186044,0.0009320789249613881
1730559808892763400,3.375763427734375,-0.0005991935613565147,0,-0.0011983871227130294
1730559808902768400,3.385768310546875,0.0015312724281102419,0.0005326165119186044,-0.000665770610794425
1730559808912795100,3.395795166015625,-0.00006657706398982555,0,0.0009320789249613881
1730559808922848000,3.405847900390625,-0.0005991935613565147,-0.0005326165119186044,-0.0001331541279796511
1730559808932877300,3.415877197265625,0.0015312724281102419,0.0015978495357558131,0.0009320789249613881
1730559808942903800,3.42590380859375,0.002063889056444168,0.0015978495357558131,-0.000665770610794425
1730559808952932900,3.435932861328125,0.00046603946248069406,0,-0.000665770610794425
1730559808962964700,3.44596484375,0.0009986559161916375,0.0005326165119186044,0.0009320789249613881
1730559808972994300,3.455994384765625,0.0009986559161916375,0.0015978495357558131,-0.0011983871227130294
1730559808983018800,3.466018798828125,0.0009986559161916375,-0.0010652330238372087,0.0003994623839389533
1730559808993047600,3.476047607421875,-0.0005991935613565147,0,0.001997311832383275
1730559809003057000,3.486056884765625,0.0015312724281102419,0.0010652330238372087,-0.0001331541279796511
1730559809013083600,3.496083740234375,0.00046603946248069406,0,-0.0011983871227130294
1730559809023130000,3.506130126953125,-0.00006657706398982555,-0.0010652330238372087,0.0003994623839389533
1730559809033159000,3.516158935546875,0.0015312724281102419,0,0.0003994623839389533
1730559809043189800,3.526189697265625,-0.00006657706398982555,0.0010652330238372087,-0.0011983871227130294
1730559809053218800,3.53621875,-0.00006657706398982555,-0.0005326165119186044,0.0014646954368799925
1730559809063233500,3.546233642578125,0.0015312724281102419,0.0005326165119186044,0.0009320789249613881
1730559809073269500,3.55626953125,0.002063889056444168,0,-0.000665770610794425
1730559809083297000,3.566297119140625,0.0015312724281102419,-0.0010652330238372087,0.0003994623839389533
1730559809093331200,3.576331298828125,0.00046603946248069406,0.0005326165119186044,0.0003994623839389533
1730559809103359200,3.586359130859375,0.0015312724281102419,-0.0005326165119186044,0.0009320789249613881
1730559809113390000,3.59639013671875,0.0015312724281102419,-0.0005326165119186044,-0.000665770610794425
1730559809123418600,3.606418701171875,0.0015312724281102419,0.0010652330238372087,0.0003994623839389533
1730559809133443000,3.616443115234375,-0.00113181013148278,0,0.0003994623839389533
1730559809143471000,3.62647119140625,-0.0005991935613565147,0.0005326165119186044,0.0014646954368799925
1730559809153496600,3.63649658203125,0.002063889056444168,0,0.001997311832383275
1730559809163524400,3.6465244140625,0.00046603946248069406,0,-0.0001331541279796511
1730559809173555200,3.65655517578125,0.00046603946248069406,0.0005326165119186044,-0.0011983871227130294
1730559809183583200,3.666583251953125,0.0015312724281102419,0.0010652330238372087,0.0009320789249613881
1730559809193616000,3.676615966796875,0.00046603946248069406,-0.0005326165119186044,-0.00226362026296556
1730559809203644400,3.68664453125,-0.0016644266434013844,-0.0015978495357558131,-0.0011983871227130294
1730559809213672000,3.696671875,-0.00006657706398982555,-0.0005326165119186044,-0.0011983871227130294
1730559809223700200,3.7067001953125,0.0009986559161916375,-0.0005326165119186044,0.0009320789249613881
1730559809233730300,3.716730224609375,0.00046603946248069406,-0.0005326165119186044,0.0003994623839389533
1730559809243758600,3.726758544921875,0.00046603946248069406,0,-0.0001331541279796511
1730559809253765600,3.736765625,-0.0005991935613565147,-0.0015978495357558131,0.0009320789249613881
1730559809263792000,3.746792236328125,-0.00006657706398982555,-0.0015978495357558131,-0.0001331541279796511
1730559809273834800,3.756834716796875,-0.00006657706398982555,0,0.0009320789249613881
1730559809283862800,3.76686279296875,0.0009986559161916375,0,-0.0001331541279796511
1730559809293895200,3.776895263671875,0.00046603946248069406,0.0010652330238372087,-0.0001331541279796511
1730559809303923700,3.786923828125,-0.0005991935613565147,-0.0010652330238372087,-0.0001331541279796511
1730559809313960200,3.796960205078125,-0.0005991935613565147,-0.0005326165119186044,0.0003994623839389533
1730559809323989500,3.806989501953125,-0.00006657706398982555,0,-0.0011983871227130294
1730559809334015000,3.817014892578125,-0.00006657706398982555,-0.0005326165119186044,-0.000665770610794425
1730559809344043800,3.827043701171875,0.00046603946248069406,-0.0010652330238372087,0.0009320789249613881
1730559809354051600,3.837051513671875,0.0009986559161916375,-0.0021304660476744175,0.0003994623839389533
1730559809364078300,3.847078369140625,0.0015312724281102419,0,-0.0001331541279796511
1730559809374121200,3.857121337890625,0.00046603946248069406,0.0005326165119186044,-0.000665770610794425
1730559809384149500,3.8671494140625,0.0009986559161916375,0,-0.0001331541279796511
1730559809394181600,3.877181640625,-0.00006657706398982555,0,0.0014646954368799925
1730559809404210400,3.88721044921875,0.0015312724281102419,0.0005326165119186044,0.0003994623839389533
1730559809414245000,3.8972451171875,0.003129122080281377,0,0.0003994623839389533
1730559809424274400,3.9072744140625,0.0009986559161916375,0,-0.0011983871227130294
1730559809434281700,3.91728173828125,0.0025965054519474506,0.0021304660476744175,-0.0011983871227130294
1730559809444309000,3.92730908203125,0.002063889056444168,0.0010652330238372087,0.0003994623839389533
1730559809454343400,3.937343505859375,-0.00113181013148278,0.0010652330238372087,0.0003994623839389533
1730559809464371500,3.947371337890625,-0.0016644266434013844,0,-0.0001331541279796511
1730559809474392300,3.957392333984375,-0.0016644266434013844,-0.0021304660476744175,0.0003994623839389533
1730559809484419300,3.96741943359375,0.0009986559161916375,-0.0005326165119186044,0.0003994623839389533
1730559809494480600,3.977480712890625,0.002063889056444168,-0.0005326165119186044,0.0009320789249613881
1730559809504511200,3.98751123046875,0.0025965054519474506,0.0005326165119186044,-0.000665770610794425
1730559809514511000,3.997510986328125,0.0025965054519474506,-0.0010652330238372087,0.0003994623839389533
1730559809524538600,4.00753857421875,0.00046603946248069406,-0.0005326165119186044,-0.00226362026296556
1730559809534566400,4.01756640625,-0.00006657706398982555,0.0026630824431777,-0.0001331541279796511
1730559809544594000,4.027593994140625,0.0025965054519474506,0.0010652330238372087,0.0014646954368799925
1730559809554624000,4.0376240234375,0.0009986559161916375,0.0010652330238372087,-0.000665770610794425
1730559809564652000,4.047652099609375,0.0009986559161916375,0.0010652330238372087,-0.0011983871227130294
1730559809574680600,4.0576806640625,0.004194355104118586,0.0015978495357558131,0.0003994623839389533
1730559809584708600,4.06770849609375,0.0015312724281102419,0.0005326165119186044,-0.0011983871227130294
1730559809594737700,4.077737548828125,-0.0005991935613565147,-0.0010652330238372087,-0.000665770610794425
1730559809604766000,4.087765869140625,0.0025965054519474506,0.0010652330238372087,0.0003994623839389533
1730559809614792200,4.097792236328125,0.00046603946248069406,0,0.0003994623839389533
1730559809624820200,4.1078203125,0.00046603946248069406,-0.0005326165119186044,0.0009320789249613881
1730559809634872300,4.117872314453125,0.0009986559161916375,-0.0005326165119186044,0.0003994623839389533
1730559809644902400,4.12790234375,0.0009986559161916375,0.0010652330238372087,0.0003994623839389533
1730559809654929700,4.1379296875,0.0009986559161916375,0.0015978495357558131,-0.0001331541279796511
1730559809664959700,4.147959716796875,0.00046603946248069406,0,-0.0001331541279796511
1730559809674956000,4.1579560546875,-0.00006657706398982555,0.0005326165119186044,-0.0011983871227130294
1730559809684982500,4.167982421875,-0.00006657706398982555,0.0010652330238372087,-0.000665770610794425
1730559809695042600,4.17804248046875,0.00046603946248069406,-0.0010652330238372087,0.0009320789249613881
1730559809705072600,4.18807275390625,-0.00006657706398982555,0.0005326165119186044,0.0003994623839389533
1730559809715096300,4.198096435546875,0.002063889056444168,-0.0010652330238372087,-0.0011983871227130294
1730559809725125600,4.208125732421875,0.0009986559161916375,0,0.0003994623839389533
1730559809735154400,4.218154541015625,0.00046603946248069406,0.0005326165119186044,0.0014646954368799925
1730559809745183700,4.228183837890625,0.0015312724281102419,-0.0010652330238372087,0.0003994623839389533
1730559809755209500,4.23820947265625,0.0009986559161916375,0,-0.000665770610794425
1730559809765238500,4.248238525390625,0.002063889056444168,0.0010652330238372087,-0.000665770610794425
1730559809775268400,4.258268310546875,0.00046603946248069406,0.0021304660476744175,0.0003994623839389533
1730559809785297400,4.26829736328125,0.0009986559161916375,0.0010652330238372087,-0.0011983871227130294
1730559809795325700,4.27832568359375,0.00046603946248069406,0,0.0009320789249613881
1730559809805354500,4.2883544921875,0.0015312724281102419,-0.0010652330238372087,-0.0001331541279796511
1730559809815383300,4.29838330078125,0.0009986559161916375,0.0010652330238372087,-0.000665770610794425
1730559809825412000,4.308412109375,-0.0005991935613565147,0.0015978495357558131,-0.0001331541279796511
1730559809835439600,4.318439697265625,-0.0016644266434013844,0.0005326165119186044,-0.0001331541279796511
1730559809845468400,4.328468505859375,0.0009986559161916375,0,0.001997311832383275
1730559809855474200,4.33847412109375,0.002063889056444168,0,-0.0001331541279796511
1730559809865500700,4.348500732421875,0.0015312724281102419,0.0005326165119186044,0.0009320789249613881
1730559809875550000,4.358550048828125,-0.00006657706398982555,0.0010652330238372087,0.0003994623839389533
1730559809885578800,4.368578857421875,-0.00006657706398982555,-0.0005326165119186044,0.0009320789249613881
1730559809895604200,4.378604248046875,0.0015312724281102419,0.0005326165119186044,-0.0017310036346316338
1730559809905632800,4.3886328125,0.0015312724281102419,0.0015978495357558131,-0.0001331541279796511
1730559809915670800,4.3986708984375,-0.00006657706398982555,0.0005326165119186044,0.0009320789249613881
1730559809925700000,4.4087001953125,0.0015312724281102419,-0.0010652330238372087,-0.0011983871227130294
1730559809935698200,4.4186982421875,0.0025965054519474506,0.0005326165119186044,-0.000665770610794425
1730559809945724400,4.428724365234375,0.0015312724281102419,0.0010652330238372087,0.0009320789249613881
1730559809955782700,4.43878271484375,0.0015312724281102419,-0.0005326165119186044,-0.0001331541279796511
1730559809965812200,4.448812255859375,0.002063889056444168,0,-0.0001331541279796511
1730559809975831800,4.458831787109375,-0.0005991935613565147,-0.0005326165119186044,0.0014646954368799925
1730559809985860000,4.468860107421875,0.00046603946248069406,0,-0.0001331541279796511
1730559809995902700,4.47890283203125,0.00046603946248069406,0.0015978495357558131,-0.0001331541279796511
1730559810005932500,4.4889326171875,-0.00006657706398982555,-0.0005326165119186044,-0.0001331541279796511
1730559810015952000,4.498951904296875,0.00046603946248069406,0.0005326165119186044,0.001997311832383275
1730559810025980700,4.508980712890625,0.0009986559161916375,0.0005326165119186044,0.0009320789249613881
1730559810036009200,4.51900927734375,0.002063889056444168,0.0005326165119186044,0.0003994623839389533
1730559810046038000,4.5290380859375,-0.00006657706398982555,0,-0.000665770610794425
1730559810056069000,4.539069091796875,-0.0005991935613565147,0.0010652330238372087,-0.000665770610794425
1730559810066098000,4.549097900390625,0.00046603946248069406,0.0010652330238372087,0.0014646954368799925
1730559810076120000,4.5591201171875,0.0009986559161916375,0.0010652330238372087,0.0003994623839389533
1730559810086148400,4.5691484375,0.0015312724281102419,0,0.0003994623839389533
1730559810096195000,4.579195068359375,0.0009986559161916375,0,-0.0001331541279796511
1730559810106225200,4.58922509765625,0.0009986559161916375,-0.0010652330238372087,0.0003994623839389533
1730559810116216600,4.599216552734375,0.00046603946248069406,0.0005326165119186044,-0.000665770610794425
1730559810126242800,4.609242919921875,-0.0005991935613565147,0.0010652330238372087,0.0003994623839389533
1730559810136294400,4.61929443359375,-0.00006657706398982555,0,-0.0001331541279796511
1730559810146323200,4.6293232421875,0.00046603946248069406,0,-0.000665770610794425
1730559810156353300,4.639353271484375,0.00046603946248069406,0.0005326165119186044,-0.0001331541279796511
1730559810166382300,4.64938232421875,0.0009986559161916375,-0.0005326165119186044,-0.000665770610794425
1730559810176408800,4.659408935546875,0.00046603946248069406,0.0010652330238372087,0.0009320789249613881
1730559810186437400,4.669437255859375,-0.00006657706398982555,0.0021304660476744175,-0.0011983871227130294
1730559810196465000,4.67946484375,-0.00006657706398982555,0.0005326165119186044,-0.0011983871227130294
1730559810206493400,4.689493408203125,-0.00006657706398982555,-0.0015978495357558131,-0.0001331541279796511
1730559810216521000,4.69952099609375,-0.00006657706398982555,0,-0.0001331541279796511
1730559810226549200,4.70954931640625,-0.00006657706398982555,-0.0005326165119186044,-0.000665770610794425
1730559810236580400,4.719580322265625,0.0009986559161916375,0,0.0003994623839389533
1730559810246609000,4.72960888671875,0.0015312724281102419,0.0010652330238372087,-0.000665770610794425
1730559810256636000,4.739635986328125,0.00046603946248069406,0,0.0009320789249613881
1730559810266664400,4.74966455078125,-0.0005991935613565147,-0.0010652330238372087,0.0009320789249613881
1730559810276695800,4.75969580078125,0.002063889056444168,0.0005326165119186044,0.0009320789249613881
1730559810286724600,4.769724609375,0.00046603946248069406,0.0015978495357558131,0.0003994623839389533
1730559810296733700,4.779733642578125,0.0009986559161916375,0.0010652330238372087,-0.0001331541279796511
1730559810306801400,4.789801513671875,0.0009986559161916375,-0.0010652330238372087,0.0003994623839389533
1730559810316828200,4.799828125,0.0015312724281102419,0,-0.0001331541279796511
1730559810326838800,4.8098388671875,0.0015312724281102419,0.0026630824431777,-0.00226362026296556
1730559810336864000,4.819864013671875,0.0009986559161916375,-0.0015978495357558131,-0.0001331541279796511
1730559810346883000,4.829883056640625,0.00046603946248069406,-0.0015978495357558131,-0.0001331541279796511
1730559810356907800,4.83990771484375,-0.0005991935613565147,0,0.0009320789249613881
1730559810366950700,4.84995068359375,-0.0005991935613565147,0.0005326165119186044,0.0009320789249613881
1730559810376977200,4.85997705078125,-0.00006657706398982555,0.0005326165119186044,-0.0011983871227130294
1730559810387007200,4.87000732421875,0.00046603946248069406,0,-0.0017310036346316338
1730559810397034000,4.880033935546875,-0.00006657706398982555,-0.0010652330238372087,0.0009320789249613881
1730559810407068200,4.890068115234375,0.0009986559161916375,-0.0005326165119186044,0.0009320789249613881
1730559810417095700,4.900095703125,0.0015312724281102419,-0.0005326165119186044,-0.0001331541279796511
1730559810427131000,4.910130859375,0.00046603946248069406,0,-0.0001331541279796511
1730559810437159200,4.9201591796875,0.002063889056444168,0.0010652330238372087,0.0003994623839389533
1730559810447167500,4.93016748046875,0.0009986559161916375,0,0.0014646954368799925
1730559810457194000,4.940194091796875,-0.0005991935613565147,-0.0010652330238372087,-0.0011983871227130294
1730559810467200000,4.950199951171875,0.00046603946248069406,0.0005326165119186044,-0.0011983871227130294
1730559810477224400,4.960224365234375,0.00046603946248069406,0.0010652330238372087,0.0009320789249613881
1730559810487296500,4.970296630859375,-0.0005991935613565147,-0.0005326165119186044,-0.0001331541279796511
1730559810497325800,4.980325927734375,0.0009986559161916375,-0.0010652330238372087,-0.0011983871227130294
1730559810507348700,4.9903486328125,0.00046603946248069406,0.0005326165119186044,-0.000665770610794425
1730559810517377300,5.000377197265625,-0.00006657706398982555,0.0021304660476744175,0.0003994623839389533
1730559810527409200,5.0104091796875,0.0015312724281102419,-0.0005326165119186044,-0.000665770610794425
1730559810537438200,5.020438232421875,-0.0005991935613565147,-0.0010652330238372087,0.0003994623839389533
1730559810547441400,5.03044140625,0.00046603946248069406,-0.0005326165119186044,-0.000665770610794425
1730559810557467600,5.040467529296875,0.0015312724281102419,-0.0005326165119186044,-0.0001331541279796511
1730559810567524400,5.0505244140625,-0.00006657706398982555,-0.0010652330238372087,-0.0001331541279796511
1730559810577553700,5.0605537109375,-0.00006657706398982555,-0.0010652330238372087,0.0009320789249613881
1730559810587574300,5.07057421875,0.002063889056444168,0.0005326165119186044,0.001997311832383275
1730559810597602600,5.0806025390625,0.0015312724281102419,0,0.0009320789249613881
1730559810607637000,5.090636962890625,-0.00006657706398982555,-0.0005326165119186044,0.0009320789249613881
1730559810617666000,5.100666015625,-0.00006657706398982555,0.0005326165119186044,0.0014646954368799925
1730559810627689000,5.11068896484375,0.0015312724281102419,0,-0.0001331541279796511
1730559810637717500,5.120717529296875,0.0009986559161916375,-0.0005326165119186044,-0.0001331541279796511
1730559810647753200,5.130753173828125,0.00046603946248069406,-0.0010652330238372087,-0.0001331541279796511
1730559810657782500,5.140782470703125,0.0009986559161916375,0.0010652330238372087,-0.0001331541279796511
1730559810667800000,5.150800048828125,0.0009986559161916375,-0.0010652330238372087,-0.000665770610794425
1730559810677828000,5.160828125,0.00046603946248069406,-0.0021304660476744175,0.0003994623839389533
1730559810687854000,5.17085400390625,-0.00006657706398982555,0,-0.0011983871227130294
1730559810697881900,5.1808818359375,0.0015312724281102419,0.0021304660476744175,0.0003994623839389533
1730559810707904500,5.190904541015625,0.00046603946248069406,0,0.0014646954368799925
1730559810717931800,5.200931884765625,-0.00113181013148278,0.0005326165119186044,-0.000665770610794425
1730559810727941000,5.210941162109375,-0.00006657706398982555,-0.0005326165119186044,0.0003994623839389533
1730559810737966600,5.220966552734375,-0.00113181013148278,0.0005326165119186044,0.0009320789249613881
1730559810748029000,5.23102880859375,-0.0016644266434013844,0,-0.0001331541279796511
1730559810758058200,5.241058349609375,0.0025965054519474506,-0.0005326165119186044,-0.00226362026296556
1730559810768078800,5.251078857421875,0.00046603946248069406,0,-0.0011983871227130294
1730559810778107100,5.261107177734375,-0.00006657706398982555,0.0005326165119186044,0.0009320789249613881
1730559810788138800,5.271138671875,-0.00006657706398982555,0.0010652330238372087,-0.000665770610794425
1730559810798167600,5.28116748046875,0.0009986559161916375,0,-0.000665770610794425
1730559810808189400,5.291189453125,-0.00006657706398982555,0,-0.0001331541279796511
1730559810818217500,5.301217529296875,-0.0005991935613565147,-0.0010652330238372087,-0.0001331541279796511
1730559810828254200,5.311254150390625,-0.00006657706398982555,-0.0005326165119186044,0.0009320789249613881
1730559810838283300,5.321283203125,0.0015312724281102419,0.0015978495357558131,-0.000665770610794425
1730559810848307200,5.33130712890625,0.002063889056444168,0,-0.0038614696823060513
1730559810858335700,5.341335693359375,-0.00006657706398982555,0,-0.000665770610794425
1730559810868362500,5.351362548828125,0.00046603946248069406,0.0005326165119186044,-0.0011983871227130294
1730559810878390800,5.361390869140625,-0.00006657706398982555,0,-0.0001331541279796511
1730559810888418800,5.371418701171875,0.00046603946248069406,0,0.0009320789249613881
1730559810898447000,5.381447021484375,-0.00006657706398982555,0,0.0003994623839389533
1730559810908494800,5.391494873046875,-0.0005991935613565147,-0.0005326165119186044,-0.0001331541279796511
1730559810918525200,5.401525146484375,-0.0005991935613565147,0,-0.0001331541279796511
1730559810928549400,5.41154931640625,0.0009986559161916375,0.0005326165119186044,-0.000665770610794425
1730559810938579200,5.4215791015625,0.0025965054519474506,-0.0005326165119186044,0.0003994623839389533
1730559810948592000,5.431592041015625,0.0009986559161916375,-0.0015978495357558131,0.0014646954368799925
1730559810958620000,5.441619873046875,-0.00006657706398982555,-0.0005326165119186044,0.0014646954368799925
1730559810968681000,5.451680908203125,0.00046603946248069406,0.0005326165119186044,-0.0001331541279796511
1730559810978712300,5.46171240234375,-0.00006657706398982555,-0.0005326165119186044,-0.0001331541279796511
1730559810988691200,5.471691162109375,0.0009986559161916375,0,0.0003994623839389533
1730559810998717200,5.48171728515625,0.0015312724281102419,0,-0.0001331541279796511
1730559811008778800,5.49177880859375,-0.00006657706398982555,0,-0.000665770610794425
1730559811018808300,5.501808349609375,0.00046603946248069406,0,0.0003994623839389533
1730559811028833300,5.511833251953125,0.0015312724281102419,-0.0005326165119186044,0.0014646954368799925
1730559811038862300,5.5218623046875,-0.00006657706398982555,0.0010652330238372087,0.0003994623839389533
1730559811048880400,5.53188037109375,0.00046603946248069406,0.0015978495357558131,-0.000665770610794425
1730559811058908400,5.541908447265625,0.0009986559161916375,-0.0005326165119186044,0.0003994623839389533
1730559811068953300,5.551953369140625,0.0009986559161916375,-0.0021304660476744175,-0.0001331541279796511
1730559811078983000,5.56198291015625,0.00046603946248069406,0,-0.0001331541279796511
1730559811089014300,5.57201416015625,0.0009986559161916375,0.0005326165119186044,-0.000665770610794425
1730559811099044000,5.582044189453125,0.0009986559161916375,0,-0.000665770610794425
1730559811109064000,5.59206396484375,0.0009986559161916375,-0.0010652330238372087,0.0003994623839389533
1730559811119092700,5.6020927734375,-0.00113181013148278,-0.0010652330238372087,0.0003994623839389533
1730559811129122300,5.612122314453125,0.002063889056444168,-0.0010652330238372087,0.0014646954368799925
1730559811139151000,5.622151123046875,0.0036617384757846594,0.0010652330238372087,0.0003994623839389533
1730559811149158700,5.63215869140625,0.0009986559161916375,0,-0.000665770610794425
1730559811159185200,5.64218505859375,-0.0016644266434013844,0,0.0009320789249613881
1730559811169234000,5.65223388671875,-0.0005991935613565147,0,0.0009320789249613881
1730559811179262700,5.6622626953125,0.0015312724281102419,0.0010652330238372087,0.0003994623839389533
1730559811189288700,5.672288818359375,0.002063889056444168,0.0010652330238372087,-0.0001331541279796511
1730559811199317200,5.682317138671875,-0.0005991935613565147,0.0005326165119186044,-0.0001331541279796511
1730559811209347800,5.692347900390625,0.002063889056444168,0.0005326165119186044,-0.000665770610794425
1730559811219376600,5.702376708984375,0.002063889056444168,0.0015978495357558131,-0.0011983871227130294
1730559811229404400,5.712404296875,-0.00006657706398982555,0.0005326165119186044,-0.0001331541279796511
1730559811239433000,5.722432861328125,-0.0016644266434013844,0,-0.0001331541279796511
1730559811249458000,5.7324580078125,-0.00006657706398982555,-0.0010652330238372087,-0.0001331541279796511
1730559811259486200,5.742486328125,0.0015312724281102419,-0.0005326165119186044,-0.0001331541279796511
1730559811269519000,5.75251904296875,0.00046603946248069406,0,-0.0001331541279796511
1730559811279548000,5.7625478515625,-0.0016644266434013844,-0.0010652330238372087,-0.0001331541279796511
1730559811289577000,5.772576904296875,-0.00006657706398982555,-0.0021304660476744175,0.0003994623839389533
1730559811299606000,5.78260595703125,0.00046603946248069406,-0.0010652330238372087,-0.0011983871227130294
1730559811309633800,5.7926337890625,0.00046603946248069406,0,0.0009320789249613881
1730559811319662600,5.80266259765625,0.0009986559161916375,0,-0.000665770610794425
1730559811329688300,5.812688232421875,0.0009986559161916375,-0.0010652330238372087,-0.0011983871227130294
1730559811339716600,5.822716552734375,0.0015312724281102419,-0.0005326165119186044,-0.000665770610794425
1730559811349722600,5.83272265625,-0.00006657706398982555,0.0015978495357558131,0.0003994623839389533
1730559811359748900,5.842748779296875,-0.00006657706398982555,0.0010652330238372087,-0.0001331541279796511
1730559811369812200,5.852812255859375,-0.00006657706398982555,0.0005326165119186044,-0.0001331541279796511
1730559811379842000,5.862842041015625,-0.00006657706398982555,0,-0.0001331541279796511
1730559811389860900,5.87286083984375,0.00046603946248069406,-0.0010652330238372087,-0.000665770610794425
1730559811399889700,5.8828896484375,0.0009986559161916375,-0.0015978495357558131,-0.0001331541279796511
1730559811409922600,5.892922607421875,0.00046603946248069406,0.0015978495357558131,0.0003994623839389533
1730559811419951900,5.902951904296875,0.00046603946248069406,0.0005326165119186044,-0.000665770610794425
1730559811429948400,5.912948486328125,0.002063889056444168,0.0005326165119186044,-0.000665770610794425
1730559811439974400,5.922974365234375,0.002063889056444168,0.0005326165119186044,-0.0001331541279796511
1730559811450024700,5.933024658203125,-0.00006657706398982555,0.0005326165119186044,0.0003994623839389533
1730559811460053200,5.94305322265625,0.0009986559161916375,0,-0.0011983871227130294
1730559811470088200,5.953088134765625,0.0009986559161916375,-0.0005326165119186044,0.0009320789249613881
1730559811480117200,5.9631171875,0.0015312724281102419,0,0.0003994623839389533
1730559811490147300,5.973147216796875,0.0009986559161916375,0,-0.0011983871227130294
1730559811500176400,5.98317626953125,0.002063889056444168,0,-0.0001331541279796511
1730559811510179600,5.9931796875,0.003129122080281377,0.0015978495357558131,0.0003994623839389533
1730559811520206000,6.0032060546875,0.0009986559161916375,0,0.0009320789249613881
1730559811530259000,6.013259033203125,0.0009986559161916375,0.0005326165119186044,-0.0011983871227130294
1730559811540288300,6.023288330078125,0.00046603946248069406,0.0005326165119186044,-0.0001331541279796511
1730559811550314200,6.033314208984375,-0.00006657706398982555,0.0005326165119186044,0.0003994623839389533
1730559811560343000,6.043343017578125,-0.00006657706398982555,-0.0021304660476744175,-0.0011983871227130294
1730559811570373000,6.053373046875,0.0009986559161916375,0.0010652330238372087,0.0003994623839389533
1730559811580402200,6.063402099609375,-0.00006657706398982555,-0.0005326165119186044,0.0009320789249613881
1730559811590426600,6.073426513671875,0.00046603946248069406,-0.0005326165119186044,0.0014646954368799925
1730559811600455200,6.083455078125,0.002063889056444168,0.0015978495357558131,-0.000665770610794425
1730559811610444300,6.0934443359375,-0.00006657706398982555,0.0010652330238372087,-0.0011983871227130294
1730559811620469000,6.103468994140625,-0.00006657706398982555,-0.0005326165119186044,-0.000665770610794425
1730559811630545000,6.113544921875,-0.0005991935613565147,-0.0005326165119186044,0.001997311832383275
1730559811640574700,6.12357470703125,-0.0016644266434013844,-0.0010652330238372087,0.0030625448562204838
1730559811650584800,6.133584716796875,0.00046603946248069406,-0.0015978495357558131,0.0009320789249613881
1730559811660612600,6.143612548828125,0.00046603946248069406,0.0005326165119186044,0.0003994623839389533
1730559811670656000,6.153656005859375,0.0015312724281102419,0.0005326165119186044,-0.0001331541279796511
1730559811680685300,6.163685302734375,0.0009986559161916375,0.0005326165119186044,-0.000665770610794425
1730559811690705700,6.17370556640625,0.0009986559161916375,0,-0.0011983871227130294
1730559811700734200,6.183734130859375,0.0015312724281102419,-0.0005326165119186044,-0.0017310036346316338
1730559811710779600,6.193779541015625,0.0015312724281102419,0.0005326165119186044,-0.0001331541279796511
1730559811720809700,6.203809814453125,-0.0005991935613565147,0,-0.0017310036346316338
1730559811730825700,6.21382568359375,0.0009986559161916375,0.0005326165119186044,-0.000665770610794425
1730559811740854500,6.2238544921875,-0.00006657706398982555,0.0005326165119186044,-0.0001331541279796511
1730559811750875100,6.233875244140625,-0.00113181013148278,0.0010652330238372087,-0.000665770610794425
1730559811760903200,6.243903076171875,0.00046603946248069406,0.0005326165119186044,-0.0011983871227130294
1730559811770945800,6.25394580078125,0.0009986559161916375,0,0.0003994623839389533
1730559811780975400,6.263975341796875,0.0009986559161916375,0,0.0009320789249613881
1730559811790997500,6.27399755859375,-0.00006657706398982555,0.0010652330238372087,0.0009320789249613881
1730559811801026000,6.284026123046875,0.0009986559161916375,0,0.0003994623839389533
1730559811811061200,6.294061279296875,-0.00006657706398982555,0.0005326165119186044,-0.000665770610794425
1730559811821090600,6.304090576171875,0.00046603946248069406,0.0010652330238372087,0.0003994623839389533
1730559811831115300,6.314115234375,0.002063889056444168,0,-0.0001331541279796511
1730559811841144300,6.324144287109375,0.0015312724281102419,0,-0.000665770610794425
1730559811851152100,6.334152099609375,0.0015312724281102419,-0.0005326165119186044,0.0009320789249613881
1730559811861179000,6.344178955078125,0.0009986559161916375,-0.0005326165119186044,0.0003994623839389533
1730559811871230000,6.35422998046875,0.00046603946248069406,-0.0005326165119186044,0.0003994623839389533
1730559811881259000,6.364259033203125,0.00046603946248069406,-0.0005326165119186044,-0.0001331541279796511
1730559811891281000,6.374281005859375,0.0009986559161916375,-0.0010652330238372087,-0.000665770610794425
1730559811901309400,6.384309326171875,0.0009986559161916375,0,0.0003994623839389533
1730559811911338000,6.394337890625,0.00046603946248069406,0,-0.0001331541279796511
1730559811921366500,6.404366455078125,0.00046603946248069406,-0.0015978495357558131,0.0003994623839389533
1730559811931382500,6.414382568359375,0.0009986559161916375,-0.0010652330238372087,-0.0001331541279796511
1730559811941409800,6.424409912109375,0.0015312724281102419,-0.0005326165119186044,-0.000665770610794425
1730559811951453200,6.434453125,0.0015312724281102419,0.0005326165119186044,0.001997311832383275
1730559811961482000,6.44448193359375,-0.00113181013148278,-0.0010652330238372087,0.0014646954368799925
1730559811971496700,6.45449658203125,0.0015312724281102419,0,-0.0001331541279796511
1730559811981524200,6.464524169921875,-0.00006657706398982555,0.0005326165119186044,-0.0001331541279796511
1730559811991555600,6.4745556640625,0.00046603946248069406,0.0005326165119186044,-0.0001331541279796511
1730559812001583400,6.484583251953125,0.0009986559161916375,0,-0.0011983871227130294
1730559812011613400,6.494613525390625,0.0015312724281102419,-0.0005326165119186044,-0.0011983871227130294
1730559812021641500,6.504641357421875,0.0015312724281102419,0.0005326165119186044,0.0009320789249613881
1730559812031672300,6.51467236328125,-0.0005991935613565147,0,-0.0001331541279796511
1730559812041700600,6.52470068359375,0.0015312724281102419,-0.0010652330238372087,0.0009320789249613881
1730559812051732700,6.534732666015625,0.0009986559161916375,-0.0010652330238372087,0.0014646954368799925
1730559812061761500,6.544761474609375,-0.00113181013148278,-0.0021304660476744175,-0.0001331541279796511
1730559812071789800,6.554789794921875,-0.0005991935613565147,0.0010652330238372087,-0.000665770610794425
1730559812081818600,6.564818603515625,0.0009986559161916375,0,-0.0001331541279796511
1730559812091847400,6.574847412109375,0.002063889056444168,0.0010652330238372087,-0.0011983871227130294
1730559812101876200,6.584876220703125,0.002063889056444168,0.0005326165119186044,-0.0011983871227130294
1730559812111904000,6.594904052734375,0.0009986559161916375,-0.0005326165119186044,-0.0001331541279796511
1730559812121932500,6.6049326171875,0.00046603946248069406,-0.0005326165119186044,-0.0011983871227130294
1730559812131962400,6.61496240234375,-0.00006657706398982555,0.0015978495357558131,0.0003994623839389533
1730559812141991200,6.6249912109375,0.0009986559161916375,0.0010652330238372087,0.0014646954368799925
1730559812152021000,6.63502099609375,0.00046603946248069406,-0.0005326165119186044,0.0009320789249613881
1730559812162050000,6.645050048828125,-0.00006657706398982555,0.0010652330238372087,0.0003994623839389533
1730559812172093400,6.655093505859375,0.00046603946248069406,0,0.0003994623839389533
1730559812182123800,6.665123779296875,0.00046603946248069406,0,-0.0001331541279796511
1730559812192146200,6.675146240234375,0.00046603946248069406,0,-0.0001331541279796511
1730559812202175700,6.68517578125,0.0015312724281102419,0.0005326165119186044,-0.0001331541279796511
1730559812212178400,6.695178466796875,0.0009986559161916375,0.0015978495357558131,0.0009320789249613881
1730559812222205200,6.705205078125,0.00046603946248069406,-0.0010652330238372087,-0.0001331541279796511
1730559812232263400,6.715263427734375,0.0015312724281102419,-0.0010652330238372087,-0.0001331541279796511
1730559812242293200,6.725293212890625,0.00046603946248069406,-0.0021304660476744175,0.0009320789249613881
1730559812252307200,6.73530712890625,0.00046603946248069406,0.0010652330238372087,0.0014646954368799925
1730559812262335500,6.74533544921875,-0.00006657706398982555,-0.0005326165119186044,-0.00226362026296556
1730559812272373000,6.755373046875,-0.0005991935613565147,-0.0026630824431777,-0.000665770610794425
1730559812282392600,6.765392578125,0.00046603946248069406,-0.0010652330238372087,-0.0001331541279796511
1730559812292422000,6.775421875,0.0015312724281102419,0,-0.000665770610794425
1730559812302451200,6.785451171875,0.00046603946248069406,0.0010652330238372087,-0.0001331541279796511
1730559812312475400,6.795475341796875,0.0015312724281102419,0.0005326165119186044,-0.0001331541279796511
1730559812322504200,6.805504150390625,0.0015312724281102419,0,0.0014646954368799925
1730559812332558800,6.815558837890625,0.00046603946248069406,-0.0005326165119186044,-0.0001331541279796511
1730559812342590200,6.825590087890625,0.00046603946248069406,-0.0005326165119186044,-0.000665770610794425
1730559812352592000,6.835591796875,0.0009986559161916375,0.0005326165119186044,-0.0017310036346316338
1730559812362620400,6.845620361328125,0.0009986559161916375,0.0005326165119186044,-0.000665770610794425
1730559812372645000,6.85564501953125,0.0015312724281102419,0.0010652330238372087,-0.0001331541279796511
1730559812382673200,6.865673095703125,0.00046603946248069406,-0.0005326165119186044,0.0014646954368799925
1730559812392685300,6.875685302734375,0.00046603946248069406,0.0010652330238372087,0.0009320789249613881
1730559812402711800,6.8857119140625,0.0009986559161916375,0.0005326165119186044,-0.000665770610794425
1730559812412762400,6.895762451171875,0.0009986559161916375,-0.0005326165119186044,0.0009320789249613881
1730559812422791400,6.90579150390625,0.002063889056444168,0.0005326165119186044,0.0009320789249613881
1730559812432814000,6.91581396484375,-0.00006657706398982555,0.0015978495357558131,-0.000665770610794425
1730559812442842400,6.92584228515625,-0.0005991935613565147,0.0010652330238372087,-0.0011983871227130294
1730559812452874200,6.935874267578125,0.003129122080281377,0.0015978495357558131,-0.000665770610794425
1730559812462902800,6.94590283203125,0.00046603946248069406,-0.0005326165119186044,-0.0001331541279796511
1730559812472926200,6.95592626953125,0.00046603946248069406,-0.0010652330238372087,0.0009320789249613881
1730559812482954200,6.965954345703125,-0.00113181013148278,-0.0010652330238372087,0.0014646954368799925
1730559812492988400,6.975988525390625,-0.00006657706398982555,-0.0010652330238372087,0.0009320789249613881
1730559812503017200,6.986017333984375,0.00046603946248069406,0.0005326165119186044,-0.000665770610794425
1730559812513041700,6.996041748046875,0.00046603946248069406,0.0005326165119186044,-0.0001331541279796511
1730559812523070000,7.006070068359375,-0.00006657706398982555,0.0005326165119186044,-0.0001331541279796511
1730559812533096700,7.0160966796875,0.00046603946248069406,0,-0.0001331541279796511
1730559812543124700,7.026124755859375,0.002063889056444168,0.0005326165119186044,-0.000665770610794425
1730559812553127200,7.036127197265625,0.0015312724281102419,0.0005326165119186044,-0.0017310036346316338
1730559812563153000,7.04615283203125,0.0009986559161916375,0.0005326165119186044,0.0003994623839389533
1730559812573216000,7.056216064453125,-0.00113181013148278,0,-0.000665770610794425
1730559812583245300,7.066245361328125,0.0015312724281102419,0.0005326165119186044,-0.0011983871227130294
1730559812593286100,7.0762861328125,0.0015312724281102419,-0.0005326165119186044,-0.0011983871227130294
1730559812603316700,7.086316650390625,0.0009986559161916375,0.0005326165119186044,0.0014646954368799925
1730559812613332500,7.09633251953125,0.0009986559161916375,0.0005326165119186044,0.0009320789249613881
1730559812623361500,7.106361572265625,-0.00006657706398982555,-0.0005326165119186044,-0.0017310036346316338
1730559812633394400,7.11639453125,-0.00006657706398982555,0.0010652330238372087,-0.000665770610794425
1730559812643423700,7.126423828125,-0.0005991935613565147,0,-0.0001331541279796511
1730559812653426000,7.136426025390625,0.00046603946248069406,0.0010652330238372087,-0.0011983871227130294
1730559812663452700,7.14645263671875,0.0015312724281102419,-0.0005326165119186044,-0.0001331541279796511
1730559812673489000,7.156489013671875,-0.0005991935613565147,-0.0021304660476744175,-0.0001331541279796511
1730559812683516700,7.1665166015625,0.00046603946248069406,-0.0010652330238372087,0.0003994623839389533
1730559812693568800,7.17656884765625,0.0015312724281102419,0,-0.0001331541279796511
1730559812703598800,7.186598876953125,0.002063889056444168,0.0010652330238372087,-0.0001331541279796511
1730559812713615400,7.196615478515625,-0.00113181013148278,-0.0005326165119186044,0.0014646954368799925
1730559812723644200,7.20664404296875,-0.0005991935613565147,-0.0005326165119186044,-0.0001331541279796511
1730559812733681700,7.216681640625,0.0015312724281102419,0.0005326165119186044,-0.0011983871227130294
1730559812743711200,7.226711181640625,0.00046603946248069406,0.0010652330238372087,0.0014646954368799925
1730559812753735700,7.236735595703125,-0.00006657706398982555,0.0005326165119186044,-0.000665770610794425
1730559812763765000,7.246764892578125,-0.0016644266434013844,-0.0015978495357558131,0.0003994623839389533
1730559812773779200,7.256779296875,0.00046603946248069406,-0.0026630824431777,-0.0001331541279796511
1730559812783806700,7.266806640625,0.0015312724281102419,0.0015978495357558131,-0.00226362026296556
1730559812793855500,7.27685546875,-0.00006657706398982555,0.0010652330238372087,-0.000665770610794425
1730559812803885300,7.28688525390625,0.002063889056444168,0.0005326165119186044,-0.0001331541279796511
1730559812813904100,7.296904052734375,0.0015312724281102419,-0.0005326165119186044,-0.0001331541279796511
1730559812823932700,7.3069326171875,-0.0005991935613565147,-0.0015978495357558131,0.0009320789249613881
1730559812833961200,7.316961181640625,0.0009986559161916375,0.0010652330238372087,0.0014646954368799925
1730559812843990000,7.326989990234375,0.0036617384757846594,0.0005326165119186044,-0.0001331541279796511
1730559812854026000,7.33702587890625,0.0025965054519474506,-0.0010652330238372087,-0.0001331541279796511
1730559812864055600,7.3470556640625,0.0015312724281102419,0,-0.0001331541279796511
1730559812874061000,7.35706103515625,0.0015312724281102419,0,0.0009320789249613881
1730559812884087800,7.367087890625,0.0009986559161916375,0,-0.0001331541279796511
1730559812894134000,7.377134033203125,0.002063889056444168,0.0005326165119186044,-0.0001331541279796511
1730559812904163000,7.3871630859375,0.0009986559161916375,0,0.001997311832383275
1730559812914169600,7.397169677734375,-0.00006657706398982555,0.0005326165119186044,0.0003994623839389533
1730559812924196400,7.4071962890625,-0.00006657706398982555,-0.0010652330238372087,-0.0017310036346316338
1730559812934250000,7.41725,-0.00006657706398982555,0.0005326165119186044,-0.0001331541279796511
1730559812944279300,7.427279296875,0.00046603946248069406,0.0015978495357558131,0.0009320789249613881
1730559812954306000,7.43730615234375,0.0015312724281102419,0.0021304660476744175,-0.0017310036346316338
1730559812964335000,7.447335205078125,0.0015312724281102419,0.0010652330238372087,-0.000665770610794425
1730559812974341400,7.45734130859375,0.00046603946248069406,0,0.001997311832383275
1730559812984368000,7.4673681640625,0.003129122080281377,0.0010652330238372087,0.0003994623839389533
1730559812994417400,7.47741748046875,0.0015312724281102419,0.0010652330238372087,-0.0017310036346316338
1730559813004446500,7.487446533203125,-0.00006657706398982555,0.0005326165119186044,-0.0011983871227130294
1730559813014473700,7.4974736328125,-0.0005991935613565147,0,-0.0001331541279796511
1730559813024502500,7.50750244140625,0.00046603946248069406,-0.0005326165119186044,-0.0001331541279796511
1730559813034529000,7.517529052734375,0.0009986559161916375,-0.0010652330238372087,0.001997311832383275
1730559813044557600,7.5275576171875,0.0015312724281102419,0,-0.0001331541279796511
1730559813054591200,7.53759130859375,-0.00006657706398982555,0.0005326165119186044,-0.0011983871227130294
1730559813064620300,7.547620361328125,0.00046603946248069406,-0.0005326165119186044,-0.0001331541279796511
1730559813074638600,7.557638671875,0.0015312724281102419,0.0005326165119186044,0.0003994623839389533
1730559813084666600,7.56766650390625,0.00046603946248069406,0.0010652330238372087,-0.000665770610794425
1730559813094703600,7.57770361328125,0.00046603946248069406,-0.0010652330238372087,-0.000665770610794425
1730559813104732400,7.587732421875,0.00046603946248069406,0,0.0014646954368799925
1730559813114758700,7.597758544921875,-0.00006657706398982555,0.0010652330238372087,0.0014646954368799925
1730559813124787500,7.607787353515625,-0.00006657706398982555,0,-0.0017310036346316338
1730559813134819600,7.617819580078125,0.0015312724281102419,-0.0015978495357558131,-0.000665770610794425
1730559813144848600,7.6278486328125,0.0015312724281102419,-0.0005326165119186044,-0.0011983871227130294
1730559813154886400,7.637886474609375,-0.0016644266434013844,-0.0021304660476744175,-0.0001331541279796511
1730559813164916200,7.647916259765625,0.0009986559161916375,0.0005326165119186044,0.0014646954368799925
1730559813174928000,7.657927978515625,0.002063889056444168,0.0005326165119186044,-0.00226362026296556
1730559813184956000,7.667955810546875,0.0009986559161916375,-0.0010652330238372087,-0.000665770610794425
1730559813194992000,7.6779921875,-0.0005991935613565147,-0.0021304660476744175,0.001997311832383275
1730559813205021200,7.688021240234375,0.00046603946248069406,0,0.0003994623839389533
1730559813215050800,7.69805078125,0.0015312724281102419,0,0.0003994623839389533
1730559813225079600,7.70807958984375,-0.0016644266434013844,0,0.0003994623839389533
1730559813235098600,7.7180986328125,0.0015312724281102419,-0.0005326165119186044,-0.000665770610794425
1730559813245126400,7.72812646484375,0.0025965054519474506,0.0010652330238372087,-0.0001331541279796511
1730559813255160000,7.73816015625,0.00046603946248069406,-0.0010652330238372087,-0.0011983871227130294
1730559813265188400,7.748188232421875,0.0009986559161916375,-0.0010652330238372087,-0.00226362026296556
1730559813275187000,7.75818701171875,0.0015312724281102419,0.0005326165119186044,-0.0001331541279796511
1730559813285212400,7.76821240234375,0.0015312724281102419,0.0005326165119186044,0.001997311832383275
1730559813295276800,7.77827685546875,-0.00006657706398982555,0.0015978495357558131,0.0014646954368799925
1730559813305306000,7.78830615234375,0.002063889056444168,0.0005326165119186044,-0.000665770610794425
1730559813315333600,7.798333740234375,0.0025965054519474506,0.0010652330238372087,0.0003994623839389533
1730559813325363000,7.808363037109375,0.002063889056444168,0,0.0025299284607172012
1730559813335385900,7.8183857421875,0.0009986559161916375,-0.0010652330238372087,0.0003994623839389533
1730559813345414400,7.828414306640625,0.0009986559161916375,0,-0.0011983871227130294
1730559813355427300,7.83842724609375,0.0015312724281102419,-0.0010652330238372087,-0.0017310036346316338
1730559813365454000,7.8484541015625,-0.00006657706398982555,0.0010652330238372087,-0.0001331541279796511
1730559813375483400,7.8584833984375,-0.00006657706398982555,0,-0.0001331541279796511
1730559813385510700,7.8685107421875,-0.00006657706398982555,-0.0015978495357558131,-0.0011983871227130294
1730559813395559700,7.8785595703125,0.0015312724281102419,-0.0005326165119186044,-0.0017310036346316338
1730559813405589000,7.888589111328125,0.002063889056444168,0.0015978495357558131,-0.0011983871227130294
1730559813415589400,7.89858935546875,0.00046603946248069406,0.0015978495357558131,-0.000665770610794425
1730559813425616000,7.908615966796875,0.0015312724281102419,-0.0015978495357558131,-0.0011983871227130294
1730559813435650800,7.91865087890625,0.0015312724281102419,0.0005326165119186044,0.0009320789249613881
1730559813445678000,7.928677978515625,0.0009986559161916375,-0.0010652330238372087,0.001997311832383275
1730559813455732500,7.938732421875,0.00046603946248069406,0,0.0009320789249613881
1730559813465762600,7.948762451171875,0.00046603946248069406,-0.0005326165119186044,-0.0001331541279796511
1730559813475774200,7.958774169921875,0.00046603946248069406,0.0010652330238372087,0.0009320789249613881
1730559813485802200,7.96880224609375,0.00046603946248069406,0.0021304660476744175,-0.0011983871227130294
1730559813495849700,7.978849609375,0.0009986559161916375,0,-0.0017310036346316338
1730559813505879800,7.9888798828125,-0.00006657706398982555,-0.0010652330238372087,0.001997311832383275
1730559813515904500,7.998904541015625,0.00046603946248069406,-0.0005326165119186044,0.0003994623839389533
1730559813525934300,8.008934326171875,-0.00006657706398982555,0.0010652330238372087,-0.000665770610794425
1730559813535960800,8.0189609375,0.0009986559161916375,0.0010652330238372087,0.0003994623839389533
1730559813545990100,8.028990234375,0.0009986559161916375,0.0005326165119186044,0.0003994623839389533
1730559813556018200,8.03901806640625,0.00046603946248069406,0,0.0009320789249613881
1730559813566047200,8.049047119140624,-0.00006657706398982555,-0.0005326165119186044,-0.0001331541279796511
1730559813576075300,8.0590751953125,-0.00006657706398982555,0,-0.000665770610794425
1730559813586104300,8.069104248046875,0.00046603946248069406,0.0005326165119186044,0.0014646954368799925
1730559813596117000,8.079116943359375,0.00046603946248069406,0.0005326165119186044,-0.000665770610794425
1730559813606144300,8.089144287109375,-0.00006657706398982555,0,-0.0001331541279796511
1730559813616149200,8.099149169921875,-0.0005991935613565147,0.0005326165119186044,0.0009320789249613881
1730559813626174500,8.109174560546874,-0.00113181013148278,0,0.0014646954368799925
1730559813636235000,8.119235107421876,0.0015312724281102419,0.0005326165119186044,-0.0001331541279796511
1730559813646263800,8.129263916015624,0.0009986559161916375,0.0005326165119186044,-0.0001331541279796511
1730559813656296200,8.139296142578125,-0.00006657706398982555,-0.0005326165119186044,0.0009320789249613881
1730559813666325200,8.1493251953125,0.0009986559161916375,-0.0005326165119186044,-0.0011983871227130294
1730559813676349000,8.159348876953125,0.0009986559161916375,-0.0005326165119186044,-0.0001331541279796511
1730559813686377500,8.16937744140625,0.00046603946248069406,0.0005326165119186044,0.0009320789249613881
1730559813696400400,8.179400390625,-0.0005991935613565147,0.0005326165119186044,0.0003994623839389533
1730559813706428200,8.18942822265625,-0.00006657706398982555,0.0005326165119186044,-0.0001331541279796511
1730559813716460500,8.19946044921875,0.0015312724281102419,0.0015978495357558131,0.0014646954368799925
1730559813726488800,8.20948876953125,0.00046603946248069406,0.0010652330238372087,-0.000665770610794425
1730559813736519200,8.219519287109375,0.002063889056444168,0.0005326165119186044,-0.0017310036346316338
1730559813746547700,8.229547607421875,0.00046603946248069406,-0.0005326165119186044,-0.0017310036346316338
1730559813756575500,8.239575439453125,0.0015312724281102419,0.0015978495357558131,-0.0001331541279796511
1730559813766603800,8.249603759765625,0.0015312724281102419,-0.0010652330238372087,-0.0001331541279796511
1730559813776628500,8.25962841796875,0.0009986559161916375,0,0.0003994623839389533
1730559813786656500,8.269656494140625,0.0015312724281102419,-0.0005326165119186044,-0.0001331541279796511
1730559813796695000,8.279695068359375,0.0009986559161916375,0.0005326165119186044,0.0003994623839389533
1730559813806724400,8.289724365234376,-0.002197043038904667,0,-0.0001331541279796511
1730559813816744000,8.299743896484374,0.0009986559161916375,-0.0010652330238372087,-0.0001331541279796511
1730559813826772200,8.309772216796874,0.0009986559161916375,0.0010652330238372087,-0.0017310036346316338
1730559813836812000,8.31981201171875,-0.00113181013148278,-0.0005326165119186044,0.0003994623839389533
1730559813846841300,8.32984130859375,-0.0005991935613565147,0.0005326165119186044,0.0003994623839389533
1730559813856868600,8.33986865234375,0.0009986559161916375,0,0.0003994623839389533
1730559813866897700,8.349897705078124,0.00046603946248069406,0.0005326165119186044,0.0003994623839389533
1730559813876928300,8.35992822265625,0.00046603946248069406,-0.0010652330238372087,0.0014646954368799925
1730559813886957600,8.36995751953125,-0.00006657706398982555,0.0005326165119186044,-0.0011983871227130294
1730559813896989200,8.3799892578125,0.0009986559161916375,-0.0005326165119186044,-0.0011983871227130294
1730559813907018800,8.390018798828125,0.00046603946248069406,0,-0.0001331541279796511
1730559813917038600,8.40003857421875,0.0009986559161916375,0.0021304660476744175,-0.0001331541279796511
1730559813927067100,8.410067138671875,0.0009986559161916375,0.0015978495357558131,-0.0001331541279796511
1730559813937112600,8.420112548828126,0.0009986559161916375,-0.0005326165119186044,-0.0011983871227130294
1730559813947143000,8.430142822265625,0.0009986559161916375,0.0010652330238372087,-0.0011983871227130294
1730559813957157400,8.440157470703125,0.0025965054519474506,0,0.0003994623839389533
1730559813967186200,8.450186279296876,0.0009986559161916375,-0.0005326165119186044,-0.0017310036346316338
1730559813977203700,8.46020361328125,0.00046603946248069406,-0.0005326165119186044,-0.00226362026296556
1730559813987231200,8.470231201171876,-0.00006657706398982555,0.0015978495357558131,-0.0001331541279796511
1730559813997271000,8.48027099609375,0.00046603946248069406,0.0015978495357558131,0.0014646954368799925
1730559814007299800,8.4902998046875,-0.00006657706398982555,-0.0010652330238372087,0.0009320789249613881
1730559814017329400,8.500329345703125,0.00046603946248069406,0,0.0003994623839389533
1730559814027358200,8.510358154296876,0.0009986559161916375,-0.0005326165119186044,0.0003994623839389533
1730559814037383000,8.5203828125,0.00046603946248069406,-0.0015978495357558131,0.0014646954368799925
1730559814047411500,8.530411376953126,-0.00006657706398982555,0.0010652330238372087,-0.0001331541279796511
1730559814057420000,8.540419921875,0.0009986559161916375,0.0015978495357558131,-0.0017310036346316338
1730559814067446500,8.550446533203125,0.0015312724281102419,-0.0015978495357558131,-0.0017310036346316338
1730559814077488000,8.560488037109375,0.0009986559161916375,-0.0005326165119186044,-0.000665770610794425
1730559814087516200,8.57051611328125,-0.00006657706398982555,0.0005326165119186044,0.0003994623839389533
1730559814097559000,8.58055908203125,0.0009986559161916375,0.0010652330238372087,0.0003994623839389533
1730559814107588600,8.590588623046875,0.0015312724281102419,0.0005326165119186044,-0.0001331541279796511
1730559814117609000,8.60060888671875,0.00046603946248069406,0.0010652330238372087,0.0003994623839389533
1730559814127637500,8.610637451171876,0.00046603946248069406,0,0.0003994623839389533
1730559814137668900,8.6206689453125,0.0009986559161916375,0.0005326165119186044,-0.0001331541279796511
1730559814147697700,8.63069775390625,0.002063889056444168,0.0005326165119186044,-0.000665770610794425
1730559814157724700,8.640724609375,0.002063889056444168,0.0005326165119186044,-0.0011983871227130294
1730559814167753200,8.650753173828125,0.002063889056444168,0.0010652330238372087,-0.000665770610794425
1730559814177778000,8.66077783203125,0.0015312724281102419,-0.0005326165119186044,-0.0011983871227130294
1730559814187806200,8.67080615234375,0.0009986559161916375,-0.0021304660476744175,0.0009320789249613881
1730559814197837600,8.680837646484376,0.0009986559161916375,0.0005326165119186044,0.0009320789249613881
1730559814207866400,8.690866455078124,0.0009986559161916375,-0.0005326165119186044,0.0014646954368799925
1730559814217900300,8.700900390625,0.002063889056444168,-0.0010652330238372087,-0.0001331541279796511
1730559814227929300,8.710929443359374,-0.0016644266434013844,-0.0010652330238372087,-0.000665770610794425
1730559814237955300,8.720955322265626,-0.00006657706398982555,-0.0015978495357558131,-0.0001331541279796511
1730559814247984000,8.730984130859374,0.0015312724281102419,0,-0.000665770610794425
1730559814258012700,8.7410126953125,0.00046603946248069406,0.0010652330238372087,-0.0001331541279796511
1730559814268041200,8.751041259765625,0.0015312724281102419,0.0005326165119186044,-0.000665770610794425
1730559814278065400,8.7610654296875,0.0009986559161916375,-0.0015978495357558131,0.0003994623839389533
1730559814288093700,8.77109375,0.00046603946248069406,0,0.0003994623839389533
1730559814298124800,8.781124755859375,-0.0005991935613565147,0.0015978495357558131,-0.000665770610794425
1730559814308153300,8.7911533203125,0.00046603946248069406,0,0.0009320789249613881
1730559814318172200,8.801172119140626,0.00046603946248069406,-0.0026630824431777,0.0009320789249613881
1730559814328199700,8.81119970703125,0.00046603946248069406,-0.0005326165119186044,-0.000665770610794425
1730559814338227200,8.821227294921876,-0.00006657706398982555,0,-0.0001331541279796511
1730559814348255000,8.8312548828125,0.00046603946248069406,-0.0005326165119186044,-0.0001331541279796511
1730559814358288600,8.84128857421875,-0.00006657706398982555,-0.0010652330238372087,-0.0027962366584688425
1730559814368316700,8.851316650390626,0.00046603946248069406,0.0010652330238372087,-0.000665770610794425
1730559814378339000,8.861339111328125,0.0009986559161916375,-0.0010652330238372087,0.0014646954368799925
1730559814388366600,8.87136669921875,0.00046603946248069406,0,0.0003994623839389533
1730559814398373600,8.88137353515625,0.0009986559161916375,0.0005326165119186044,-0.0001331541279796511
1730559814408399000,8.891399169921876,0.00046603946248069406,0.0010652330238372087,-0.000665770610794425
1730559814418453800,8.901453857421876,0.00046603946248069406,0,0.0003994623839389533
1730559814428482300,8.911482421875,0.0009986559161916375,0,0.001997311832383275
1730559814438513000,8.921512939453125,0.0015312724281102419,-0.0005326165119186044,0.0025299284607172012
1730559814448541700,8.931541748046875,0.0015312724281102419,-0.0005326165119186044,-0.000665770610794425
1730559814458576400,8.941576416015625,0.0009986559161916375,0.0015978495357558131,-0.0001331541279796511
1730559814468605700,8.951605712890625,-0.0005991935613565147,0,0.001997311832383275
1730559814478630000,8.9616298828125,0.00046603946248069406,0,0.0014646954368799925
1730559814488658700,8.97165869140625,0.0015312724281102419,0.0015978495357558131,-0.0001331541279796511
1730559814498692400,8.9816923828125,0.0009986559161916375,0.0010652330238372087,-0.0001331541279796511
1730559814508721700,8.9917216796875,0.00046603946248069406,0.0005326165119186044,0.0003994623839389533
1730559814518741500,9.001741455078125,0.0025965054519474506,0,-0.0027962366584688425
1730559814528780000,9.011780029296874,0.0008655018173158169,0.0009986559161916375,-0.000665770610794425
1730559814538808300,9.021808349609374,0.0008655018173158169,-0.0005991935613565147,0.0009320789249613881
1730559814548838100,9.031838134765625,0.0008655018173158169,-0.00113181013148278,-0.0001331541279796511
1730559814558866400,9.041866455078125,0.0019307348411530256,-0.00113181013148278,-0.000665770610794425
1730559814568894700,9.051894775390625,-0.001797580742277205,-0.00113181013148278,-0.0001331541279796511
1730559814578923000,9.061923095703126,-0.0012649642303586006,-0.00113181013148278,0.0030625448562204838
1730559814588954400,9.071954345703125,0.0008655018173158169,-0.0005991935613565147,0.0009320789249613881
1730559814598983000,9.08198291015625,-0.00019973119196947664,-0.00113181013148278,0.0003994623839389533
1730559814609027000,9.092027099609375,-0.0007323477184399962,-0.00113181013148278,0.0014646954368799925
1730559814619057200,9.10205712890625,-0.0012649642303586006,-0.00006657706398982555,0.0009320789249613881
1730559814629062100,9.112062255859374,-0.0012649642303586006,0.0009986559161916375,0.0009320789249613881
1730559814639090000,9.12208984375,-0.00019973119196947664,0.00046603946248069406,-0.000665770610794425
1730559814649114000,9.132114013671876,0.0008655018173158169,0.0009986559161916375,-0.0001331541279796511
1730559814659141400,9.142141357421876,0.0003328853053972125,0.00046603946248069406,0.0003994623839389533
1730559814669175300,9.15217529296875,-0.0012649642303586006,0.0009986559161916375,-0.000665770610794425
1730559814679203300,9.162203369140625,-0.0012649642303586006,-0.00006657706398982555,-0.000665770610794425
1730559814689238300,9.17223828125,-0.00019973119196947664,-0.00006657706398982555,0.0003994623839389533
1730559814699267000,9.18226708984375,0.0008655018173158169,0.00046603946248069406,-0.0001331541279796511
1730559814709291800,9.192291748046875,0.0003328853053972125,0.00046603946248069406,0.0003994623839389533
1730559814719320000,9.202320068359375,0.0003328853053972125,0.0009986559161916375,0.0003994623839389533
1730559814729347600,9.21234765625,-0.00019973119196947664,0.0009986559161916375,0.0014646954368799925
1730559814739375600,9.222375732421876,-0.0007323477184399962,-0.0005991935613565147,-0.0011983871227130294
1730559814749382100,9.232382080078125,-0.0007323477184399962,0.0009986559161916375,-0.0017310036346316338
1730559814759408400,9.242408447265625,-0.0007323477184399962,-0.00113181013148278,-0.000665770610794425
1730559814769460200,9.252460205078124,-0.00019973119196947664,-0.00006657706398982555,-0.0001331541279796511
1730559814779489000,9.262489013671875,0.0003328853053972125,-0.0005991935613565147,0.0003994623839389533
1730559814789524500,9.2725244140625,-0.0007323477184399962,0.00046603946248069406,0.0003994623839389533
1730559814799553800,9.2825537109375,0.0003328853053972125,0.0025965054519474506,-0.000665770610794425
1730559814809583000,9.2925830078125,0.0003328853053972125,-0.00006657706398982555,0.0003994623839389533
1730559814819612400,9.3026123046875,0.0008655018173158169,0.00046603946248069406,-0.000665770610794425
1730559814829636000,9.312635986328125,0.0008655018173158169,0.00046603946248069406,0.0003994623839389533
1730559814839665000,9.322664794921875,0.0008655018173158169,0.002063889056444168,0.001997311832383275
1730559814849693200,9.332693115234376,-0.00019973119196947664,-0.00006657706398982555,-0.0001331541279796511
1730559814859722000,9.342721923828124,-0.0012649642303586006,0.00046603946248069406,0.0003994623839389533
1730559814869745200,9.3527451171875,-0.0007323477184399962,0.002063889056444168,-0.0001331541279796511
1730559814879773200,9.362773193359375,-0.0012649642303586006,-0.0005991935613565147,0.0003994623839389533
1730559814889803500,9.372803466796874,0.0013981183292344213,-0.00113181013148278,-0.000665770610794425
1730559814899831800,9.382831787109374,0.0013981183292344213,-0.00006657706398982555,-0.000665770610794425
1730559814909859800,9.39285986328125,-0.0007323477184399962,-0.00006657706398982555,0.0014646954368799925
1730559814919888100,9.40288818359375,0.0003328853053972125,-0.00006657706398982555,0.0014646954368799925
1730559814929894700,9.412894775390624,0.0008655018173158169,0.00046603946248069406,0.0003994623839389533
1730559814939920600,9.422920654296876,-0.0012649642303586006,0.0009986559161916375,0.0003994623839389533
1730559814949974800,9.432974853515624,0.0003328853053972125,0.0009986559161916375,0.0009320789249613881
1730559814960003600,9.443003662109374,-0.0012649642303586006,-0.00006657706398982555,0.0003994623839389533
1730559814970032000,9.4530322265625,-0.00019973119196947664,-0.00006657706398982555,-0.000665770610794425
1730559814980061000,9.46306103515625,0.0008655018173158169,-0.00006657706398982555,-0.0017310036346316338
1730559814990093600,9.473093505859374,0.0013981183292344213,-0.0005991935613565147,-0.0017310036346316338
1730559815000123000,9.483122802734375,0.0019307348411530256,-0.00006657706398982555,0.0003994623839389533
1730559815010126600,9.493126708984375,0.0013981183292344213,0.00046603946248069406,0.0014646954368799925
1730559815020153300,9.5031533203125,0.0003328853053972125,-0.00006657706398982555,-0.0001331541279796511
1730559815030206200,9.513206298828125,-0.00019973119196947664,-0.00006657706398982555,0.0003994623839389533
1730559815040235500,9.523235595703126,-0.00019973119196947664,-0.00113181013148278,0.0003994623839389533
1730559815050261800,9.53326171875,0.0008655018173158169,-0.0016644266434013844,0.0003994623839389533
1730559815060290800,9.543290771484376,0.0003328853053972125,-0.0005991935613565147,-0.000665770610794425
1730559815070316500,9.553316650390625,-0.0007323477184399962,-0.0016644266434013844,0.0014646954368799925
1730559815080345300,9.563345458984376,-0.00019973119196947664,-0.00006657706398982555,0.0009320789249613881
1730559815090378000,9.5733779296875,-0.00019973119196947664,0.00046603946248069406,-0.000665770610794425
1730559815100407000,9.583406982421875,-0.00019973119196947664,0.00046603946248069406,0.0003994623839389533
1730559815110430700,9.5934306640625,-0.0007323477184399962,0.0009986559161916375,-0.0001331541279796511
1730559815120459300,9.603459228515625,0.0003328853053972125,-0.0005991935613565147,-0.000665770610794425
1730559815130488800,9.61348876953125,0.0008655018173158169,-0.0016644266434013844,0.0003994623839389533
1730559815140517400,9.623517333984376,-0.00019973119196947664,0.00046603946248069406,-0.000665770610794425
1730559815150550800,9.63355078125,-0.0007323477184399962,0.0015312724281102419,-0.0011983871227130294
1730559815160580000,9.643580078125,0.0003328853053972125,-0.00006657706398982555,0.0003994623839389533
1730559815170611700,9.65361181640625,-0.0007323477184399962,0.00046603946248069406,-0.0001331541279796511
1730559815180641000,9.66364111328125,0.0008655018173158169,0.0009986559161916375,-0.0011983871227130294
1730559815190649900,9.67364990234375,-0.00019973119196947664,0.0009986559161916375,-0.000665770610794425
1730559815200677000,9.683677001953125,-0.00019973119196947664,0.0009986559161916375,0.0009320789249613881
1730559815210714400,9.69371435546875,-0.00019973119196947664,-0.0005991935613565147,0.0025299284607172012
1730559815220742700,9.70374267578125,-0.0012649642303586006,-0.002729659667238593,0.0014646954368799925
1730559815230779100,9.713779052734376,-0.0012649642303586006,-0.00113181013148278,0.0009320789249613881
1730559815240808200,9.72380810546875,-0.00019973119196947664,0.00046603946248069406,0.0009320789249613881
1730559815250803200,9.73380322265625,-0.00019973119196947664,-0.00113181013148278,0.0003994623839389533
1730559815260829000,9.743828857421875,0.0003328853053972125,-0.00006657706398982555,0.0003994623839389533
1730559815270893300,9.753893310546875,0.0003328853053972125,-0.00006657706398982555,0.0014646954368799925
1730559815280923000,9.7639228515625,0.0003328853053972125,-0.0005991935613565147,0.0003994623839389533
1730559815290949600,9.77394970703125,-0.00019973119196947664,-0.00006657706398982555,0.0009320789249613881
1730559815300978700,9.783978759765626,0.0013981183292344213,-0.00113181013148278,-0.0011983871227130294
1730559815311004000,9.79400390625,0.0003328853053972125,-0.00006657706398982555,0.0003994623839389533
1730559815321032700,9.80403271484375,0.0003328853053972125,-0.00006657706398982555,0.001997311832383275
1730559815331069000,9.81406884765625,0.0008655018173158169,-0.0005991935613565147,0.0009320789249613881
1730559815341098500,9.824098388671874,0.0008655018173158169,-0.0005991935613565147,-0.0001331541279796511
1730559815351120600,9.83412060546875,0.0003328853053972125,0.00046603946248069406,0.0003994623839389533
1730559815361149400,9.8441494140625,0.0003328853053972125,0.00046603946248069406,-0.0017310036346316338
1730559815371173400,9.85417333984375,0.0008655018173158169,0.00046603946248069406,-0.0027962366584688425
1730559815381197600,9.864197509765624,0.0008655018173158169,-0.00006657706398982555,-0.000665770610794425
1730559815391226000,9.87422607421875,0.0008655018173158169,0.0009986559161916375,0.0003994623839389533
1730559815401243400,9.884243408203124,0.0003328853053972125,-0.00006657706398982555,0.0003994623839389533
1730559815411271000,9.89427099609375,-0.0012649642303586006,-0.0005991935613565147,-0.0001331541279796511
1730559815421308700,9.90430859375,0.0008655018173158169,0.00046603946248069406,0.0009320789249613881
1730559815431337200,9.914337158203125,0.0003328853053972125,-0.00006657706398982555,0.0003994623839389533
1730559815441369600,9.92436962890625,-0.0012649642303586006,-0.0005991935613565147,-0.000665770610794425
1730559815451398700,9.934398681640625,0.0008655018173158169,-0.0005991935613565147,-0.0001331541279796511
1730559815461431000,9.94443115234375,-0.0007323477184399962,-0.0005991935613565147,-0.000665770610794425
1730559815471460400,9.95446044921875,-0.00019973119196947664,-0.002197043038904667,0.0009320789249613881
1730559815481484300,9.964484375,0.0008655018173158169,-0.0005991935613565147,0.0003994623839389533
1730559815491513000,9.97451318359375,-0.0007323477184399962,0.00046603946248069406,0.0003994623839389533
1730559815501535200,9.98453515625,0.0008655018173158169,0.0015312724281102419,-0.0001331541279796511
1730559815511563300,9.994563232421875,0.0019307348411530256,0.0009986559161916375,-0.000665770610794425
1730559815521597700,10.00459765625,-0.001797580742277205,-0.00006657706398982555,-0.000665770610794425
1730559815531626500,10.01462646484375,-0.001797580742277205,-0.00006657706398982555,-0.0001331541279796511
1730559815541621500,10.02462158203125,-0.0007323477184399962,-0.0005991935613565147,-0.0001331541279796511
1730559815551646700,10.034646728515625,0.0008655018173158169,0.00046603946248069406,-0.0001331541279796511
1730559815561704000,10.044703857421876,-0.0007323477184399962,0.00046603946248069406,-0.0001331541279796511
1730559815571732500,10.054732421875,-0.0007323477184399962,-0.0005991935613565147,-0.0011983871227130294
1730559815581760500,10.064760498046875,-0.00019973119196947664,-0.00006657706398982555,-0.000665770610794425
1730559815591789000,10.0747890625,0.0003328853053972125,-0.00113181013148278,-0.000665770610794425
1730559815601826600,10.08482666015625,0.0008655018173158169,0.00046603946248069406,-0.000665770610794425
1730559815611856100,10.094856201171876,-0.00019973119196947664,0.00046603946248069406,0.0014646954368799925
1730559815621893600,10.1048935546875,-0.0012649642303586006,0.0009986559161916375,0.0003994623839389533
1730559815631923700,10.114923828125,-0.0012649642303586006,-0.0005991935613565147,-0.0011983871227130294
1730559815641944000,10.124944091796875,-0.00019973119196947664,-0.00113181013148278,-0.0001331541279796511
1730559815651973000,10.13497314453125,0.0003328853053972125,-0.00006657706398982555,0.0003994623839389533
1730559815661995500,10.14499560546875,0.0008655018173158169,-0.00006657706398982555,-0.0001331541279796511
1730559815672024000,10.155024169921875,-0.0007323477184399962,-0.00006657706398982555,0.0003994623839389533
1730559815682044200,10.165044189453125,-0.0007323477184399962,0.00046603946248069406,-0.0011983871227130294
1730559815692072000,10.175072021484375,-0.0012649642303586006,-0.0005991935613565147,0.0014646954368799925
1730559815702115800,10.18511572265625,0.0003328853053972125,-0.00006657706398982555,0.0009320789249613881
1730559815712145200,10.195145263671876,0.0003328853053972125,-0.0016644266434013844,-0.000665770610794425
1730559815722158000,10.205157958984374,0.0003328853053972125,-0.002197043038904667,0.0009320789249613881
1730559815732185900,10.215185791015625,0.0008655018173158169,0.00046603946248069406,-0.0001331541279796511
1730559815742234600,10.225234619140625,0.0013981183292344213,0.0009986559161916375,-0.0011983871227130294
1730559815752264400,10.235264404296874,0.0003328853053972125,-0.00006657706398982555,-0.000665770610794425
1730559815762295800,10.2452958984375,-0.0007323477184399962,-0.0005991935613565147,-0.0001331541279796511
1730559815772325600,10.25532568359375,0.0003328853053972125,0.0025965054519474506,0.001997311832383275
1730559815782331100,10.2653310546875,-0.0007323477184399962,-0.00006657706398982555,0.004127778112888336
1730559815792358700,10.275358642578125,0.0008655018173158169,0.00046603946248069406,0.0014646954368799925
1730559815802377000,10.285376953125,-0.0007323477184399962,-0.00006657706398982555,-0.0001331541279796511
1730559815812403700,10.29540380859375,0.0008655018173158169,-0.0005991935613565147,-0.0011983871227130294
1730559815822457600,10.30545751953125,0.002463351469486952,-0.00006657706398982555,-0.0017310036346316338
1730559815832487200,10.315487060546875,0.0013981183292344213,0.0009986559161916375,0.0003994623839389533
1730559815842514700,10.3255146484375,-0.001797580742277205,0.00046603946248069406,0.0009320789249613881
1730559815852543700,10.335543701171876,-0.0012649642303586006,0.00046603946248069406,-0.000665770610794425
1730559815862542800,10.34554296875,-0.00019973119196947664,-0.002197043038904667,-0.0017310036346316338
1730559815872569000,10.355569091796875,0.0008655018173158169,-0.0005991935613565147,-0.000665770610794425
1730559815882617900,10.365617919921876,0.0019307348411530256,0.0009986559161916375,0.0003994623839389533
1730559815892646400,10.375646484375,-0.0007323477184399962,-0.00113181013148278,-0.0001331541279796511
1730559815902675700,10.38567578125,0.0003328853053972125,-0.00006657706398982555,0.0003994623839389533
1730559815912704000,10.3957041015625,0.0019307348411530256,0.00046603946248069406,-0.0001331541279796511
1730559815922735600,10.405735595703124,-0.00019973119196947664,-0.0005991935613565147,-0.000665770610794425
1730559815932764700,10.4157646484375,-0.0007323477184399962,-0.0016644266434013844,-0.0011983871227130294
1730559815942800600,10.425800537109374,0.0003328853053972125,-0.00113181013148278,-0.0001331541279796511
1730559815952830200,10.435830322265625,0.002463351469486952,-0.00006657706398982555,-0.0001331541279796511
1730559815962850000,10.44585009765625,-0.0012649642303586006,-0.0016644266434013844,0.001997311832383275
1730559815972878600,10.455878662109376,-0.00019973119196947664,-0.0005991935613565147,0.0009320789249613881
1730559815982896000,10.465896240234375,0.0013981183292344213,0.0015312724281102419,0.0014646954368799925
1730559815992923600,10.475923583984375,0.0003328853053972125,0.0009986559161916375,-0.0001331541279796511
1730559816002966300,10.48596630859375,-0.001797580742277205,0.00046603946248069406,-0.0001331541279796511
1730559816012995300,10.495995361328125,-0.00019973119196947664,0.0009986559161916375,0.0009320789249613881
1730559816023026400,10.5060263671875,0.0008655018173158169,0.00046603946248069406,0.0009320789249613881
1730559816033055500,10.516055419921875,-0.0007323477184399962,0.0009986559161916375,-0.000665770610794425
1730559816043091000,10.526091064453125,-0.0007323477184399962,-0.00006657706398982555,-0.0001331541279796511
1730559816053120800,10.536120849609375,-0.00019973119196947664,-0.0005991935613565147,-0.0001331541279796511
1730559816063130600,10.546130615234375,-0.0007323477184399962,-0.002197043038904667,0.0003994623839389533
1730559816073158700,10.55615869140625,-0.0007323477184399962,-0.00113181013148278,0.0009320789249613881
1730559816083200800,10.56620068359375,-0.00019973119196947664,0.00046603946248069406,-0.000665770610794425
1730559816093230000,10.57622998046875,0.0008655018173158169,0.002063889056444168,-0.0001331541279796511
1730559816103249000,10.586248779296875,-0.0007323477184399962,-0.0005991935613565147,0.0003994623839389533
1730559816113277200,10.596277099609376,-0.0012649642303586006,0.0009986559161916375,0.0003994623839389533
1730559816123314000,10.60631396484375,0.0008655018173158169,0.0009986559161916375,-0.000665770610794425
1730559816133343000,10.616343017578124,0.0008655018173158169,0.0009986559161916375,-0.0011983871227130294
1730559816143367400,10.626367431640626,-0.00019973119196947664,0.0015312724281102419,-0.0001331541279796511
1730559816153396200,10.636396240234374,-0.0007323477184399962,-0.0005991935613565147,0.0009320789249613881
1730559816163430400,10.646430419921876,-0.0012649642303586006,0.00046603946248069406,-0.000665770610794425
1730559816173459500,10.65645947265625,-0.0012649642303586006,0.0009986559161916375,-0.0001331541279796511
1730559816183467800,10.6664677734375,-0.0012649642303586006,-0.0005991935613565147,0.0003994623839389533
1730559816193494800,10.676494873046876,0.0003328853053972125,-0.0005991935613565147,0.0003994623839389533
1730559816203573800,10.68657373046875,0.0003328853053972125,-0.00006657706398982555,0.0009320789249613881
1730559816213606100,10.696606201171875,-0.0007323477184399962,-0.0005991935613565147,0.0003994623839389533
1730559816223594000,10.706593994140626,0.0013981183292344213,-0.00006657706398982555,-0.000665770610794425
1730559816233621800,10.716621826171876,0.0003328853053972125,-0.002197043038904667,0.001997311832383275
1730559816243657000,10.726656982421876,0.0008655018173158169,-0.00006657706398982555,0.0003994623839389533
1730559816253685500,10.736685546875,0.0008655018173158169,-0.00006657706398982555,0.0009320789249613881
1730559816263708700,10.746708740234375,-0.00019973119196947664,0.0015312724281102419,-0.000665770610794425
1730559816273736700,10.75673681640625,-0.00019973119196947664,0.0009986559161916375,-0.0001331541279796511
1730559816283754000,10.76675390625,0.0013981183292344213,-0.0005991935613565147,0.0003994623839389533
1730559816293781000,10.776781005859375,-0.00019973119196947664,-0.00006657706398982555,-0.0011983871227130294
1730559816303792000,10.786792236328125,0.0003328853053972125,0.00046603946248069406,-0.0011983871227130294
1730559816313817300,10.7968173828125,0.0013981183292344213,-0.00006657706398982555,-0.000665770610794425
1730559816323857000,10.80685693359375,0.0003328853053972125,0.0015312724281102419,0.0009320789249613881
1730559816333883600,10.816883544921875,0.0003328853053972125,0.00046603946248069406,0.0003994623839389533
1730559816343939600,10.826939697265624,-0.00019973119196947664,-0.00006657706398982555,-0.0011983871227130294
1730559816353969400,10.836969482421875,-0.001797580742277205,0.00046603946248069406,0.0003994623839389533
1730559816363992600,10.84699267578125,-0.0012649642303586006,0.00046603946248069406,0.0003994623839389533
1730559816374021600,10.857021728515624,0.0019307348411530256,-0.00006657706398982555,-0.000665770610794425
1730559816384034300,10.867034423828125,0.0008655018173158169,-0.0005991935613565147,-0.000665770610794425
1730559816394061600,10.8770615234375,0.0013981183292344213,-0.00006657706398982555,-0.000665770610794425
1730559816404086500,10.88708642578125,0.0003328853053972125,-0.00113181013148278,0.0009320789249613881
1730559816414113800,10.89711376953125,0.0008655018173158169,-0.00113181013148278,-0.0011983871227130294
1730559816424161300,10.907161376953125,-0.00019973119196947664,0.0015312724281102419,0.0009320789249613881
1730559816434190600,10.917190673828125,-0.0007323477184399962,0.0015312724281102419,-0.0001331541279796511
1730559816444232400,10.927232421875,-0.0007323477184399962,-0.00006657706398982555,0.0014646954368799925
1730559816454262800,10.9372626953125,-0.00019973119196947664,-0.00006657706398982555,-0.0001331541279796511
1730559816464267300,10.947267333984374,0.0003328853053972125,0.00046603946248069406,-0.000665770610794425
1730559816474295300,10.95729541015625,0.0003328853053972125,-0.00006657706398982555,0.0009320789249613881
1730559816484324000,10.967323974609375,-0.00019973119196947664,-0.0016644266434013844,0.0009320789249613881
1730559816494352100,10.97735205078125,-0.00019973119196947664,-0.0005991935613565147,-0.000665770610794425
1730559816504367000,10.9873671875,0.0003328853053972125,0.00046603946248069406,-0.000665770610794425
1730559816514393600,10.9973935546875,-0.0007323477184399962,-0.0005991935613565147,0.0009320789249613881
1730559816524450000,11.007449951171875,-0.0007323477184399962,0.00046603946248069406,0.0009320789249613881
1730559816534480000,11.01747998046875,-0.00019973119196947664,0.0015312724281102419,0.0009320789249613881
1730559816544511200,11.02751123046875,-0.00019973119196947664,-0.00006657706398982555,0.0009320789249613881
1730559816554541000,11.037541015625,-0.0007323477184399962,-0.0005991935613565147,-0.0011983871227130294
1730559816564567000,11.047567138671875,-0.0012649642303586006,-0.00113181013148278,-0.000665770610794425
1730559816574596600,11.0575966796875,0.0003328853053972125,-0.00113181013148278,0.0014646954368799925
1730559816584627200,11.067627197265624,0.0013981183292344213,-0.00006657706398982555,-0.0001331541279796511
1730559816594656800,11.07765673828125,0.0003328853053972125,0.00046603946248069406,-0.000665770610794425
1730559816604635600,11.0876357421875,-0.0012649642303586006,0.0009986559161916375,0.0009320789249613881
1730559816614660000,11.09766015625,-0.00019973119196947664,0.0015312724281102419,-0.0001331541279796511
1730559816624732700,11.107732666015625,0.0003328853053972125,0.0009986559161916375,0.0003994623839389533
1730559816634762000,11.117761962890626,-0.0012649642303586006,0.0009986559161916375,0.0025299284607172012
1730559816644773600,11.127773681640624,-0.00019973119196947664,0.00046603946248069406,0.0009320789249613881
1730559816654801200,11.13780126953125,-0.00019973119196947664,0.00046603946248069406,0.0003994623839389533
1730559816664844000,11.147843994140626,0.0003328853053972125,-0.0005991935613565147,-0.0017310036346316338
1730559816674873000,11.157873046875,0.0003328853053972125,0.0009986559161916375,-0.0001331541279796511
1730559816684899300,11.1678994140625,0.0008655018173158169,-0.0005991935613565147,-0.000665770610794425
1730559816694928100,11.17792822265625,0.0003328853053972125,-0.00113181013148278,-0.0011983871227130294
1730559816704952600,11.18795263671875,-0.00019973119196947664,-0.0005991935613565147,-0.000665770610794425
1730559816714980900,11.19798095703125,-0.0007323477184399962,-0.0016644266434013844,-0.000665770610794425
1730559816725002200,11.208002197265625,-0.00019973119196947664,-0.0005991935613565147,-0.0001331541279796511
1730559816735030000,11.218030029296875,0.0003328853053972125,-0.0016644266434013844,-0.0001331541279796511
1730559816745069600,11.228069580078126,-0.0012649642303586006,-0.00006657706398982555,-0.0001331541279796511
1730559816755098400,11.238098388671874,-0.00019973119196947664,0.0009986559161916375,0.0003994623839389533
1730559816765095000,11.248094970703125,0.0003328853053972125,-0.0005991935613565147,0.0009320789249613881
1730559816775120400,11.258120361328125,-0.0012649642303586006,-0.0005991935613565147,0.0025299284607172012
1730559816785177300,11.26817724609375,-0.0007323477184399962,-0.00113181013148278,-0.0001331541279796511
1730559816795206000,11.278205810546876,-0.00019973119196947664,-0.00006657706398982555,0.0009320789249613881
1730559816805253000,11.288253173828124,-0.0007323477184399962,-0.00113181013148278,0.0014646954368799925
1730559816815283700,11.29828369140625,-0.001797580742277205,-0.0005991935613565147,0.0003994623839389533
1730559816825293800,11.3082939453125,0.0008655018173158169,0.00046603946248069406,0.0009320789249613881
1730559816835322400,11.318322265625,0.0019307348411530256,0.0009986559161916375,-0.0001331541279796511
1730559816845347800,11.328347900390625,0.002463351469486952,0.00046603946248069406,-0.0001331541279796511
1730559816855376000,11.3383759765625,0.0019307348411530256,0.00046603946248069406,0.0003994623839389533
1730559816865404200,11.348404052734375,-0.0007323477184399962,-0.0005991935613565147,0.0014646954368799925
1730559816875432400,11.358432373046876,-0.00019973119196947664,0.0015312724281102419,-0.0001331541279796511
1730559816885464600,11.368464599609375,0.0019307348411530256,0.0009986559161916375,-0.0011983871227130294
1730559816895493400,11.378493408203125,-0.0007323477184399962,0.002063889056444168,0.0014646954368799925
1730559816905530400,11.3885302734375,-0.00019973119196947664,-0.0016644266434013844,0.0003994623839389533
1730559816915560000,11.398559814453124,0.0003328853053972125,-0.0016644266434013844,0.0014646954368799925
1730559816925583400,11.408583251953125,-0.00019973119196947664,0.00046603946248069406,0.0009320789249613881
1730559816935612400,11.4186123046875,0.0003328853053972125,-0.00006657706398982555,0.0014646954368799925
1730559816945641000,11.428640869140626,-0.00019973119196947664,-0.00006657706398982555,0.0003994623839389533
1730559816955669800,11.438669677734374,-0.00019973119196947664,0.0015312724281102419,-0.0011983871227130294
1730559816965708500,11.44870849609375,-0.00019973119196947664,-0.00006657706398982555,0.0003994623839389533
1730559816975738400,11.45873828125,-0.00019973119196947664,-0.00113181013148278,0.0009320789249613881
1730559816985762600,11.468762451171875,0.0003328853053972125,-0.00006657706398982555,-0.0011983871227130294
1730559816995791600,11.47879150390625,-0.00019973119196947664,-0.0005991935613565147,-0.000665770610794425
1730559817005821000,11.488821044921876,-0.00019973119196947664,0.0009986559161916375,0.0009320789249613881
1730559817015850200,11.498850341796874,-0.00019973119196947664,-0.00113181013148278,-0.0001331541279796511
1730559817025851600,11.5088515625,0.0013981183292344213,0.0009986559161916375,-0.000665770610794425
1730559817035878100,11.518878173828124,0.0008655018173158169,0.0009986559161916375,-0.0001331541279796511
1730559817045915100,11.5289150390625,0.0008655018173158169,-0.00006657706398982555,0.0003994623839389533
1730559817055942700,11.538942626953125,0.0008655018173158169,-0.00006657706398982555,0.0003994623839389533
1730559817065974500,11.548974609375,0.0003328853053972125,-0.00113181013148278,0.0003994623839389533
1730559817076002600,11.55900244140625,-0.0007323477184399962,-0.0005991935613565147,-0.00226362026296556
1730559817086044700,11.569044677734375,-0.0012649642303586006,-0.0005991935613565147,0.0009320789249613881
1730559817096074000,11.579073974609376,-0.00019973119196947664,-0.0005991935613565147,0.001997311832383275
1730559817106104300,11.589104248046874,-0.0007323477184399962,0.00046603946248069406,-0.0001331541279796511
1730559817116134000,11.5991337890625,-0.0023301972541958094,-0.00006657706398982555,-0.0011983871227130294
1730559817126158800,11.609158935546875,-0.0007323477184399962,-0.00006657706398982555,0.0009320789249613881
1730559817136188000,11.61918798828125,0.0003328853053972125,-0.0016644266434013844,0.0003994623839389533
1730559817146204700,11.62920458984375,-0.00019973119196947664,-0.00113181013148278,-0.0011983871227130294
1730559817156232400,11.639232421875,-0.00019973119196947664,-0.00006657706398982555,0.0003994623839389533
1730559817166271200,11.649271240234375,-0.00019973119196947664,-0.00006657706398982555,-0.0017310036346316338
1730559817176300000,11.659300048828126,-0.0007323477184399962,0.00046603946248069406,-0.0011983871227130294
1730559817186332400,11.66933251953125,-0.00019973119196947664,-0.0005991935613565147,-0.000665770610794425
1730559817196361500,11.679361572265625,0.0008655018173158169,-0.0005991935613565147,-0.000665770610794425
1730559817206391800,11.689391845703126,-0.0007323477184399962,-0.00113181013148278,0.0003994623839389533
1730559817216421000,11.699421142578124,0.0003328853053972125,-0.00113181013148278,0.0014646954368799925
1730559817226444000,11.709444091796875,0.0008655018173158169,-0.0005991935613565147,-0.000665770610794425
1730559817236472600,11.71947265625,0.0013981183292344213,0.00046603946248069406,-0.0017310036346316338
1730559817246491000,11.729490966796876,0.0003328853053972125,-0.002197043038904667,-0.000665770610794425
1730559817256518700,11.7395185546875,0.0019307348411530256,-0.0016644266434013844,-0.000665770610794425
1730559817266568200,11.749568115234375,-0.0007323477184399962,-0.00113181013148278,-0.000665770610794425
1730559817276598000,11.759597900390625,-0.0012649642303586006,-0.00006657706398982555,-0.000665770610794425
1730559817286591700,11.769591796875,-0.0007323477184399962,-0.0005991935613565147,0.0009320789249613881
1730559817296618000,11.779617919921876,-0.00019973119196947664,-0.00113181013148278,0.0009320789249613881
1730559817306648300,11.7896484375,-0.0007323477184399962,-0.00113181013148278,-0.0001331541279796511
1730559817316674800,11.7996748046875,-0.001797580742277205,-0.0005991935613565147,-0.0001331541279796511
1730559817326729500,11.8097294921875,0.0008655018173158169,-0.0005991935613565147,-0.0001331541279796511
1730559817336759000,11.819759033203125,0.0008655018173158169,-0.00006657706398982555,-0.000665770610794425
1730559817346780000,11.82977978515625,-0.00019973119196947664,-0.00113181013148278,0.0003994623839389533
1730559817356808400,11.839808349609376,-0.00019973119196947664,-0.002197043038904667,0.001997311832383275
1730559817366848000,11.849847900390625,0.0003328853053972125,-0.0016644266434013844,-0.0001331541279796511
1730559817376877800,11.8598779296875,-0.00019973119196947664,-0.0005991935613565147,-0.000665770610794425
1730559817386901200,11.8699013671875,-0.0012649642303586006,-0.0005991935613565147,0.001997311832383275
1730559817396930300,11.879930419921875,-0.0012649642303586006,-0.00113181013148278,0.0009320789249613881
1730559817406957600,11.88995751953125,-0.0007323477184399962,-0.00113181013148278,-0.0001331541279796511
1730559817416986400,11.899986328125,-0.0007323477184399962,-0.00006657706398982555,-0.0011983871227130294
1730559817427012400,11.910012451171875,0.0008655018173158169,-0.00113181013148278,-0.0001331541279796511
1730559817437041200,11.920041259765625,0.0003328853053972125,0.00046603946248069406,-0.0001331541279796511
1730559817447042300,11.930042236328125,-0.0007323477184399962,0.0009986559161916375,-0.0001331541279796511
1730559817457068000,11.940068115234375,-0.0007323477184399962,-0.0005991935613565147,0.0003994623839389533
1730559817467114000,11.950114013671875,0.0003328853053972125,0.00046603946248069406,-0.0017310036346316338
1730559817477141800,11.960141845703125,0.0013981183292344213,-0.0005991935613565147,0.0009320789249613881
1730559817487195600,11.970195556640626,0.0008655018173158169,0.00046603946248069406,0.0009320789249613881
1730559817497226000,11.98022607421875,0.0003328853053972125,-0.00006657706398982555,-0.0001331541279796511
1730559817507242000,11.990241943359376,-0.0012649642303586006,0.00046603946248069406,-0.000665770610794425
1730559817517271000,12.00027099609375,-0.0012649642303586006,0.0015312724281102419,0.0014646954368799925
