time,seconds_elapsed,z,y,x
1730559805653545500,0.13654541015625,0.020372580736875534,0.11031819134950638,-0.1659766137599945
1730559805663569000,0.14656884765625,-0.004127778112888336,0.07722939550876617,-0.18515081703662872
1730559805673570000,0.156570068359375,-0.029693370684981346,0.020772043615579605,-0.17183540761470795
1730559805683593500,0.166593505859375,-0.04620448127388954,-0.024034319445490837,-0.13934579491615295
1730559805693665300,0.176665283203125,-0.03661738336086273,0.0010652330238372087,-0.11697590351104736
1730559805703704800,0.186704833984375,-0.001997311832383275,0.051663801074028015,-0.09720251709222794
1730559805713742000,0.1967421875,0.027895789593458176,0.08681648969650269,-0.05672365799546242
1730559805723780900,0.20678076171875,0.02949363924562931,0.09806801378726959,-0.023701434955000877
1730559805733770500,0.2167705078125,0.03268933668732643,0.11031819134950638,-0.001797580742277205
1730559805743789600,0.22678955078125,0.04760260134935379,0.1486665904521942,0.022170161828398705
1730559805753844200,0.23684423828125,0.05186353251338005,0.1849510818719864,0.038148656487464905
1730559805763877600,0.246877685546875,0.06304848194122314,0.18654893338680267,0.037083424627780914
1730559805773891300,0.256891357421875,0.0784943550825119,0.15612322092056274,0.002463351469486952
1730559805783916800,0.266916748046875,0.08328790962696075,0.09327446669340134,-0.06258244067430496
1730559805793955600,0.27695556640625,0.0790269747376442,0.0213046595454216,-0.12496514618396759
1730559805803986400,0.286986328125,0.07529865950345993,-0.04480636492371559,-0.16171568632125854
1730559805814002400,0.29700244140625,0.07157034426927567,-0.10772168636322021,-0.1755637228488922
1730559805824027400,0.30702734375,0.07689651101827621,-0.13914605975151062,-0.16917231678962708
1730559805834059500,0.3170595703125,0.08169005811214447,-0.1205044835805893,-0.14041103422641754
1730559805844087300,0.32708740234375,0.0784943550825119,-0.07729597389698029,-0.10359390825033188
1730559805854145500,0.3371455078125,0.07742912322282791,-0.04480636492371559,-0.07696308940649033
1730559805864185600,0.347185546875,0.10832088440656662,-0.04533898085355759,-0.09986559301614761
1730559805874178600,0.357178466796875,0.13927921652793884,-0.07250241935253143,-0.1665092408657074
1730559805884199700,0.36719970703125,0.16963836550712585,-0.10559122264385223,-0.21717438101768494
1730559805894232300,0.377232421875,0.1856168508529663,-0.1316894292831421,-0.2310224175453186
1730559805904258000,0.387258056640625,0.16377957165241241,-0.14979839324951172,-0.25765323638916016
1730559805914300000,0.3972998046875,0.14993155002593994,-0.1833532303571701,-0.3157750070095062
1730559805924332000,0.40733203125,0.17762760818004608,-0.2606492042541504,-0.36424311995506287
1730559805934331600,0.41733154296875,0.1957365721464157,-0.3432713449001312,-0.3722323775291443
1730559805944350700,0.427350830078125,0.16910573840141296,-0.34220612049102783,-0.3498624861240387
1730559805954421500,0.43742138671875,0.14620323479175568,-0.30705341696739197,-0.3061879277229309
1730559805964461300,0.44746142578125,0.13927921652793884,-0.2723667621612549,-0.2310224175453186
1730559805974475000,0.45747509765625,0.12436595559120178,-0.1828206181526184,-0.1558569073677063
1730559805984504300,0.46750439453125,0.13128997385501862,0.023967742919921875,-0.11857374757528305
1730559805994528800,0.47752880859375,0.15738818049430847,0.2483324557542801,-0.06418029218912125
1730559806004557600,0.4875576171875,0.1653774231672287,0.47010064125061035,0.0035285844933241606
1730559806014594300,0.49759423828125,0.1531272530555725,0.6598452925682068,0.015778765082359314
1730559806024623900,0.507623779296875,0.1440727710723877,0.7861419916152954,-0.05938674136996269
1730559806034651000,0.51765087890625,0.13501828908920288,0.8244903683662415,-0.22729410231113434
1730559806044680200,0.52768017578125,0.14140968024730682,0.7962616682052612,-0.4687025249004364
1730559806054701800,0.537701904296875,0.36577439308166504,0.6011908650398254,-0.6504579186439514
1730559806064730400,0.54773046875,0.8300162553787231,0.22862564027309418,-0.6696321368217468
1730559806074766300,0.557766357421875,1.023489236831665,0.18009096384048462,-0.684611976146698
1730559806084795600,0.567795654296875,0.9728906154632568,0.18548369407653809,-0.7059165835380554
1730559806094820600,0.577820556640625,0.8209617733955383,0.07350108027458191,-0.7890713810920715
1730559806104849400,0.587849365234375,0.7740915417671204,0.13588379323482513,-0.939335823059082
1730559806114873300,0.597873291015625,0.900388240814209,0.5868102312088013,-1.0400668382644653
1730559806124901600,0.607901611328125,0.9547816514968872,0.9790822863578796,-1.1136345863342285
1730559806134929200,0.61792919921875,0.8262879252433777,1.052649974822998,-1.2069090604782104
1730559806144957400,0.62795751953125,0.6744256615638733,1.053182601928711,-1.1962566375732422
1730559806154985000,0.63798486328125,0.5075835585594177,0.8959275484085083,-1.0981886386871338
1730559806165013000,0.648012939453125,0.3039908707141876,0.48235082626342773,-1.0491878986358643
1730559806175023900,0.65802392578125,0.12915951013565063,-0.08049166947603226,-0.9931966662406921
1730559806185050000,0.668050048828125,0.049200449138879776,-0.6806839108467102,-0.9462597966194153
1730559806195104300,0.678104248046875,0.05825493112206459,-1.1486541032791138,-0.9612396359443665
1730559806205133600,0.688133544921875,0.08009220659732819,-1.363964319229126,-1.0896668434143066
1730559806215161300,0.698161376953125,0.06038539856672287,-1.3655622005462646,-1.3263483047485352
1730559806225190400,0.7081904296875,-0.03235645219683647,-1.264298439025879,-1.645585298538208
1730559806235218700,0.71821875,-0.17682868242263794,-1.1955243349075317,-1.98672616481781
1730559806245247700,0.728247802734375,-0.30365797877311707,-1.2270152568817139,-2.293180465698242
1730559806255276800,0.73827685546875,-0.3740299344062805,-1.326681137084961,-2.5485033988952637
1730559806265305900,0.748305908203125,-0.3974650800228119,-1.4599018096923828,-2.7254652976989746
1730559806275327700,0.75832763671875,-0.39213889837265015,-1.6411246061325073,-2.809685230255127
1730559806285356000,0.76835595703125,-0.36071452498435974,-1.8975129127502441,-2.8112831115722656
1730559806295389000,0.778388916015625,-0.3414737582206726,-2.2178151607513428,-2.752628803253174
1730559806305417500,0.78841748046875,-0.35059481859207153,-2.51261830329895,-2.6220710277557373
1730559806315444700,0.79844482421875,-0.3772256374359131,-2.6522305011749268,-2.347573757171631
1730559806325473300,0.808473388671875,-0.4278241991996765,-2.573336601257324,-1.933397889137268
1730559806335497200,0.818497314453125,-0.5430025458335876,-2.4054293632507324,-1.497384786605835
1730559806345525500,0.828525390625,-0.7231600880622864,-2.4262678623199463,-1.1818760633468628
1730559806355529700,0.83852978515625,-0.8707613945007324,-2.6522305011749268,-0.9963923692703247
1730559806365555700,0.8485556640625,-0.9390029311180115,-2.852094888687134,-0.8871393799781799
1730559806375620000,0.8586201171875,-0.9943950176239014,-3.0333175659179688,-0.8370068669319153
1730559806385649700,0.868649658203125,-1.0663648843765259,-3.1825833320617676,-0.8551158308982849
1730559806395674600,0.878674560546875,-1.113834261894226,-3.1559524536132812,-0.9676310420036316
1730559806405704000,0.888703857421875,-1.0962579250335693,-2.8393120765686035,-1.1786803007125854
1730559806415729400,0.8987294921875,-1.0067118406295776,-2.240784168243408,-1.4254815578460693
1730559806425758200,0.90875830078125,-0.8404023051261902,-1.5595676898956299,-1.635998249053955
1730559806435758800,0.9187587890625,-0.6047860383987427,-0.9493223428726196,-1.7447185516357422
1730559806445784800,0.928784912109375,-0.34793174266815186,-0.4861457347869873,-1.6860641241073608
1730559806455843300,0.93884326171875,-0.09527178108692169,-0.28681400418281555,-1.42920982837677
1730559806465872600,0.94887255859375,0.1424749195575714,-0.3336842358112335,-1.0203601121902466
1730559806475905500,0.958905517578125,0.3380783200263977,-0.6214969158172607,-0.5796199440956116
1730559806485935000,0.96893505859375,0.4547879099845886,-1.0143015384674072,-0.22622886300086975
1730559806495958300,0.978958251953125,0.4659728705883026,-1.3208223581314087,-0.05619104206562042
1730559806505987000,0.988987060546875,0.3716331720352173,-1.4343363046646118,-0.12762823700904846
1730559806516013300,0.999013427734375,0.21071641147136688,-1.2882661819458008,-0.4585828185081482
1730559806526041900,1.009041748046875,0.044939517974853516,-0.9493223428726196,-0.9697614908218384
1730559806536067000,1.019067138671875,-0.05312849581241608,-0.5852789878845215,-1.476080060005188
1730559806546095400,1.029095458984375,-0.009453942999243736,-0.31024911999702454,-1.7815356254577637
1730559806556126200,1.039126220703125,0.15738818049430847,-0.2611818313598633,-1.8023077249526978
1730559806566154800,1.04915478515625,0.3189041316509247,-0.44986122846603394,-1.5789417028427124
1730559806576194600,1.059194580078125,0.45212483406066895,-0.7862085700035095,-1.14139723777771
1730559806586224000,1.06922412109375,0.5704323053359985,-1.1971222162246704,-0.6089138388633728
1730559806596245000,1.079244873046875,0.6621088981628418,-1.5345346927642822,-0.07430000603199005
1730559806606273800,1.089273681640625,0.6573153734207153,-1.6736807823181152,0.329689621925354
1730559806616272000,1.09927197265625,0.536877453327179,-1.6347332000732422,0.4842815697193146
1730559806626297600,1.109297607421875,0.4015262722969055,-1.5601003170013428,0.36970242857933044
1730559806636358000,1.11935791015625,0.2932719588279724,-1.526545524597168,0.04720313847064972
1730559806646387200,1.12938720703125,0.19999749958515167,-1.4295426607131958,-0.3605147898197174
1730559806656374800,1.139374755859375,0.1334204375743866,-1.254178762435913,-0.7107101678848267
1730559806666399700,1.149399658203125,0.09766855090856552,-1.094260573387146,-0.9137701988220215
1730559806676457200,1.159457275390625,0.09340762346982956,-0.9823445677757263,-0.9467924237251282
1730559806686485500,1.169485595703125,0.12809427082538605,-0.8698959350585938,-0.8247566819190979
1730559806696534300,1.1795341796875,0.18348638713359833,-0.8021870255470276,-0.600924551486969
1730559806706564600,1.189564697265625,0.0896793082356453,-0.5468640327453613,-0.1995314657688141
1730559806716539100,1.1995390625,-0.7316819429397583,1.210970163345337,1.149453043937683
1730559806726564000,1.209564208984375,-0.33561497926712036,-0.11464570462703705,1.1180286407470703
1730559806736644400,1.219644287109375,0.3913399875164032,0.4519250988960266,0.4480636417865753
1730559806746674700,1.2296748046875,0.4121786057949066,1.0051804780960083,0.19487106800079346
1730559806756699100,1.23969921875,0.24373863637447357,1.106444239616394,0.26098209619522095
1730559806766729000,1.24972900390625,0.3828181326389313,1.4955871105194092,0.29453691840171814
1730559806776739600,1.259739501953125,0.4228309392929077,1.7908564805984497,0.34513550996780396
1730559806786767600,1.269767578125,0.4467986822128296,1.9603615999221802,0.31690680980682373
1730559806796810500,1.279810546875,0.42975494265556335,2.081332206726074,0.2769605815410614
1730559806806813000,1.28981298828125,0.2815544009208679,2.358492374420166,0.19380582869052887
1730559806816842200,1.29984228515625,0.2091185599565506,3.1414387226104736,0.145803764462471
1730559806826884000,1.309884033203125,0.22669489681720734,4.113131046295166,0.15379302203655243
1730559806836879000,1.319879150390625,0.24906480312347412,4.858794212341309,0.17090332508087158
1730559806846909700,1.32990966796875,0.3087844252586365,4.890750885009766,0.10159660130739212
1730559806856984600,1.339984619140625,0.22616228461265564,4.09395694732666,0.07496577501296997
1730559806867022600,1.350022705078125,0.011318100616335869,2.772069215774536,-0.006591129116714001
1730559806877057000,1.36005712890625,-0.37349733710289,1.441193699836731,-0.14254149794578552
1730559806887069000,1.37006884765625,-0.8067808747291565,0.8724924325942993,-0.20539024472236633
1730559806897101000,1.38010107421875,-1.0466580390930176,0.9545819163322449,-0.31364455819129944
1730559806907110000,1.39010986328125,-1.1623023748397827,1.2989184856414795,-0.31204670667648315
1730559806917139700,1.4001396484375,-1.167628526687622,1.6559712886810303,-0.292805939912796
1730559806927164200,1.4101640625,-1.0866042375564575,2.162889003753662,-0.28162097930908203
1730559806937193700,1.42019384765625,-0.9619054198265076,2.8808560371398926,-0.2523270845413208
1730559806947216600,1.430216552734375,-0.5792204737663269,2.7193400859832764,-0.4282236695289612
1730559806957245400,1.440245361328125,0.09766855090856552,0.9386034607887268,-0.5699662566184998
1730559806967279000,1.450279052734375,0.43241801857948303,-0.5447335243225098,-0.1771615743637085
1730559806977308400,1.460308349609375,0.504920482635498,-0.2601165771484375,0.36064794659614563
1730559806987330800,1.470330810546875,0.551790714263916,0.9705604314804077,0.7305501103401184
1730559806997359400,1.480359375,0.5246272683143616,2.5248019695281982,0.5477294921875
1730559807007389200,1.49038916015625,0.34553495049476624,2.502964735031128,-0.5321504473686218
1730559807017417700,1.500417724609375,0.10405994951725006,2.029069185256958,-0.7586456537246704
1730559807027448600,1.510448486328125,0.03055887296795845,1.5307399034500122,-0.14680242538452148
1730559807037477400,1.520477294921875,-0.012117025442421436,2.344111919403076,0.4293554723262787
1730559807047515400,1.530515380859375,-0.061650361865758896,4.165393829345703,1.0311455726623535
1730559807057545000,1.540544921875,-0.058454662561416626,1.3138318061828613,1.0322108268737793
1730559807067554000,1.550553955078125,-0.07982590049505234,-0.9722248911857605,-0.21770699322223663
1730559807077581800,1.560581787109375,-0.044606633484363556,-0.8864070177078247,-0.9190963506698608
1730559807087619000,1.570619140625,0.009187635034322739,-0.36138030886650085,0.03228987753391266
1730559807097647600,1.580647705078125,0.005991935729980469,0.6976610422134399,0.19753414392471313
1730559807107673600,1.590673583984375,-0.001997311832383275,0.12416622787714005,0.061583783477544785
1730559807117702000,1.600701904296875,0.0033288532868027687,-0.2068549394607544,-0.07110430300235748
1730559807127733800,1.610733642578125,0.0001331541279796511,0.03515268862247467,0.006724283564835787
1730559807137762600,1.620762451171875,-0.0003994623839389533,0.04154408723115921,0.01364829856902361
1730559807147806200,1.63080615234375,0.000665770610794425,-0.010186290368437767,-0.006058512721210718
1730559807157836300,1.640836181640625,0.000665770610794425,0.00905448105186224,0.0003328853053972125
1730559807167853000,1.65085302734375,0.000665770610794425,0.0079892473295331,-0.00019973119196947664
1730559807177881900,1.6608818359375,0.00226362026296556,0.004260932095348835,-0.001797580742277205
1730559807187920400,1.67092041015625,0.0001331541279796511,0.0047935484908521175,0.0008655018173158169
1730559807197950200,1.6809501953125,0.0017310036346316338,0.0053261648863554,-0.0023301972541958094
1730559807207976200,1.69097607421875,0.000665770610794425,0.0037283156998455524,-0.0007323477184399962
1730559807218005800,1.701005859375,0.0011983871227130294,0.004260932095348835,-0.0012649642303586006
1730559807228007200,1.711007080078125,0.0027962366584688425,0.0047935484908521175,-0.001797580742277205
1730559807238034000,1.721033935546875,0.0017310036346316338,0.0047935484908521175,-0.00019973119196947664
1730559807248087600,1.731087646484375,0.0001331541279796511,0.0031956990715116262,-0.0007323477184399962
1730559807258116900,1.741116943359375,0.0001331541279796511,0.0031956990715116262,-0.00019973119196947664
1730559807268143400,1.751143310546875,0.000665770610794425,0.004260932095348835,-0.0023301972541958094
1730559807278172400,1.76117236328125,0.0001331541279796511,0.0031956990715116262,-0.00019973119196947664
1730559807288181800,1.771181640625,-0.0003994623839389533,0.0015978495357558131,-0.00019973119196947664
1730559807298208800,1.781208740234375,-0.0003994623839389533,0.0015978495357558131,-0.0012649642303586006
1730559807308259800,1.791259765625,0.0001331541279796511,0.0037283156998455524,-0.0012649642303586006
1730559807318289400,1.801289306640625,0.0001331541279796511,0.0047935484908521175,-0.001797580742277205
1730559807328315100,1.811315185546875,-0.0003994623839389533,0.0031956990715116262,-0.0023301972541958094
1730559807338344200,1.82134423828125,0.0017310036346316338,0.0015978495357558131,-0.0007323477184399962
1730559807348370200,1.8313701171875,0.00226362026296556,0.0026630824431777,-0.002862813649699092
1730559807358399000,1.84139892578125,0.0017310036346316338,0.004260932095348835,-0.002862813649699092
1730559807368422000,1.851421875,0.0017310036346316338,0.0026630824431777,-0.0012649642303586006
1730559807378450200,1.8614501953125,0.00226362026296556,0.0031956990715116262,-0.0012649642303586006
1730559807388466400,1.871466552734375,0.000665770610794425,0.0037283156998455524,-0.00019973119196947664
1730559807398493400,1.881493408203125,0.0011983871227130294,0.0037283156998455524,-0.0012649642303586006
1730559807408542200,1.891542236328125,0.0001331541279796511,0.0031956990715116262,-0.001797580742277205
1730559807418571300,1.9015712890625,-0.0009320789249613881,0.0015978495357558131,-0.002862813649699092
1730559807428600600,1.9116005859375,-0.0003994623839389533,0.0037283156998455524,-0.001797580742277205
1730559807438629600,1.921629638671875,0.000665770610794425,0.0031956990715116262,-0.0007323477184399962
1730559807448656000,1.93165576171875,-0.0014646954368799925,0.0015978495357558131,-0.0007323477184399962
1730559807458685000,1.941684814453125,0.0001331541279796511,0.0021304660476744175,-0.0023301972541958094
1730559807468710400,1.95171044921875,0.000665770610794425,0.0021304660476744175,-0.001797580742277205
1730559807478739000,1.961739013671875,0.0011983871227130294,0.0026630824431777,-0.0023301972541958094
1730559807488766200,1.97176611328125,0.0011983871227130294,0.0026630824431777,-0.0023301972541958094
1730559807498794800,1.981794677734375,0.0001331541279796511,0.0031956990715116262,-0.0012649642303586006
1730559807508828200,1.991828125,0.0001331541279796511,0.0037283156998455524,-0.003928046673536301
1730559807518857200,2.001857177734375,0.0001331541279796511,0.0026630824431777,-0.002862813649699092
1730559807528887300,2.01188720703125,0.0017310036346316338,0.0031956990715116262,-0.00019973119196947664
1730559807538916400,2.021916259765625,0.000665770610794425,0.0031956990715116262,-0.0007323477184399962
1730559807548941300,2.03194140625,0.0017310036346316338,0.0021304660476744175,-0.0007323477184399962
1730559807558970000,2.04197021484375,-0.0009320789249613881,0.0037283156998455524,-0.001797580742277205
1730559807569001500,2.05200146484375,0.000665770610794425,0.0031956990715116262,-0.0007323477184399962
1730559807579030500,2.062030517578125,0.000665770610794425,0.0037283156998455524,-0.0012649642303586006
1730559807589036000,2.0720361328125,0.0011983871227130294,0.0021304660476744175,-0.0012649642303586006
1730559807599062800,2.082062744140625,0.000665770610794425,0.0037283156998455524,-0.0012649642303586006
1730559807609112300,2.0921123046875,-0.0003994623839389533,0.0026630824431777,-0.0023301972541958094
1730559807619141400,2.102141357421875,0.00226362026296556,0.0010652330238372087,-0.0012649642303586006
1730559807629172200,2.112172119140625,0.0017310036346316338,0.0021304660476744175,-0.0023301972541958094
1730559807639201300,2.122201171875,0.0017310036346316338,0.0015978495357558131,-0.001797580742277205
1730559807649229600,2.1322294921875,0.0017310036346316338,0.0026630824431777,-0.00019973119196947664
1730559807659258600,2.142258544921875,0.0011983871227130294,0.0015978495357558131,-0.0007323477184399962
1730559807669281800,2.15228173828125,0.0011983871227130294,0.0015978495357558131,-0.0007323477184399962
1730559807679310300,2.162310302734375,0.0011983871227130294,-0.0005991935613565147,-0.002862813649699092
1730559807689319200,2.172319091796875,0.0011983871227130294,0.0026630824431777,-0.0023301972541958094
1730559807699345700,2.182345703125,-0.0003994623839389533,0.0037283156998455524,-0.0012649642303586006
1730559807709398500,2.1923984375,0.0017310036346316338,0.0021304660476744175,-0.0007323477184399962
1730559807719427600,2.202427490234375,0.0001331541279796511,0.0026630824431777,-0.00019973119196947664
1730559807729456000,2.2124560546875,0.0001331541279796511,0.004260932095348835,-0.003928046673536301
1730559807739485200,2.222485107421875,0.00226362026296556,0.004260932095348835,-0.002862813649699092
1730559807749489700,2.23248974609375,0.0033288532868027687,0.0047935484908521175,-0.0012649642303586006
1730559807759516400,2.242516357421875,0.0011983871227130294,0.0026630824431777,-0.0012649642303586006
1730559807769560000,2.25256005859375,0.0017310036346316338,0.0031956990715116262,-0.001797580742277205
1730559807779588400,2.26258837890625,0.00226362026296556,0.0037283156998455524,-0.002862813649699092
1730559807789607400,2.272607421875,0.0017310036346316338,0.0026630824431777,-0.001797580742277205
1730559807799635000,2.282635009765625,-0.0003994623839389533,0.0010652330238372087,-0.00019973119196947664
1730559807809684000,2.29268408203125,-0.0003994623839389533,0.0010652330238372087,-0.001797580742277205
1730559807819713500,2.302713623046875,0.0017310036346316338,0.0026630824431777,-0.0023301972541958094
1730559807829739300,2.3127392578125,0.0011983871227130294,0.0026630824431777,-0.0007323477184399962
1730559807839768600,2.3227685546875,0.0011983871227130294,0.0037283156998455524,-0.0023301972541958094
1730559807849796600,2.332796630859375,0.0017310036346316338,0.0031956990715116262,-0.0023301972541958094
1730559807859825700,2.34282568359375,0.0001331541279796511,0.0026630824431777,-0.0007323477184399962
1730559807869858000,2.352858154296875,-0.0003994623839389533,0.0021304660476744175,-0.001797580742277205
1730559807879887600,2.3628876953125,0.0017310036346316338,0.0026630824431777,-0.003395430278033018
1730559807889925000,2.372925048828125,0.000665770610794425,0.0026630824431777,-0.003928046673536301
1730559807899955500,2.38295556640625,0.000665770610794425,0.0037283156998455524,-0.003395430278033018
1730559807909965300,2.39296533203125,0.0011983871227130294,0.004260932095348835,-0.0007323477184399962
1730559807919993600,2.40299365234375,0.000665770610794425,0.0031956990715116262,-0.0012649642303586006
1730559807930003200,2.413003173828125,0.0011983871227130294,0.0021304660476744175,-0.0012649642303586006
1730559807940029400,2.423029541015625,0.0001331541279796511,0.0015978495357558131,-0.0023301972541958094
1730559807950080300,2.433080322265625,0.0001331541279796511,0.0031956990715116262,-0.0012649642303586006
1730559807960109000,2.443109130859375,0.000665770610794425,0.0031956990715116262,-0.0012649642303586006
1730559807970134500,2.453134521484375,0.0017310036346316338,0.0015978495357558131,-0.0023301972541958094
1730559807980163000,2.4631630859375,0.000665770610794425,0.0015978495357558131,-0.002862813649699092
1730559807990221600,2.4732216796875,0.000665770610794425,0.0021304660476744175,-0.001797580742277205
1730559808000253000,2.4832529296875,0.0001331541279796511,0.0021304660476744175,-0.00019973119196947664
1730559808010229200,2.493229248046875,0.0011983871227130294,0.0026630824431777,-0.0023301972541958094
1730559808020255200,2.503255126953125,0.000665770610794425,0.0021304660476744175,-0.002862813649699092
1730559808030311700,2.513311767578125,0.0011983871227130294,0.0037283156998455524,-0.001797580742277205
1730559808040340700,2.5233408203125,0.0017310036346316338,0.0021304660476744175,0.0003328853053972125
1730559808050359600,2.533359619140625,-0.0003994623839389533,0.0010652330238372087,-0.001797580742277205
1730559808060387600,2.5433876953125,-0.0003994623839389533,0.0026630824431777,-0.0012649642303586006
1730559808070425300,2.55342529296875,0.000665770610794425,0.0021304660476744175,-0.0012649642303586006
1730559808080454400,2.563454345703125,0.000665770610794425,0.0031956990715116262,-0.0023301972541958094
1730559808090496500,2.57349658203125,0.0001331541279796511,0.0021304660476744175,-0.0023301972541958094
1730559808100526800,2.58352685546875,0.0001331541279796511,0.0021304660476744175,-0.001797580742277205
1730559808110541600,2.59354150390625,0.0001331541279796511,0.0031956990715116262,-0.001797580742277205
1730559808120564000,2.60356396484375,0.0011983871227130294,0.0026630824431777,-0.0023301972541958094
1730559808130594300,2.61359423828125,0.0027962366584688425,0.0026630824431777,-0.003928046673536301
1730559808140621300,2.623621337890625,0.0017310036346316338,0.004260932095348835,-0.0012649642303586006
1730559808150651100,2.633651123046875,0.0011983871227130294,0.0037283156998455524,-0.001797580742277205
1730559808160691700,2.643691650390625,0.000665770610794425,0.0010652330238372087,-0.0012649642303586006
1730559808170722800,2.653722900390625,0.000665770610794425,0.0021304660476744175,-0.0012649642303586006
1730559808180720400,2.663720458984375,0.0011983871227130294,0.0021304660476744175,-0.00019973119196947664
1730559808190748200,2.673748046875,-0.0003994623839389533,0.0026630824431777,0.0013981183292344213
1730559808200778500,2.683778564453125,0.0027962366584688425,0.0010652330238372087,-0.001797580742277205
1730559808210806500,2.693806640625,0.0027962366584688425,0.0010652330238372087,-0.0023301972541958094
1730559808220837600,2.703837646484375,0.00226362026296556,0.0021304660476744175,-0.002862813649699092
1730559808230865700,2.71386572265625,0.0001331541279796511,0.0026630824431777,-0.001797580742277205
1730559808240892700,2.723892578125,-0.0003994623839389533,0.0031956990715116262,-0.001797580742277205
1730559808250921000,2.7339208984375,0.000665770610794425,0.0026630824431777,-0.002862813649699092
1730559808260958000,2.7439580078125,0.000665770610794425,0.004260932095348835,-0.0007323477184399962
1730559808270987000,2.753987060546875,-0.0009320789249613881,0.0037283156998455524,-0.0007323477184399962
1730559808280989000,2.763989013671875,0.0017310036346316338,0.004260932095348835,-0.0007323477184399962
1730559808291015200,2.77401513671875,0.0001331541279796511,0.0053261648863554,-0.0012649642303586006
1730559808301081000,2.7840810546875,-0.0009320789249613881,0.0026630824431777,-0.001797580742277205
1730559808311111400,2.794111328125,-0.0003994623839389533,0.0010652330238372087,-0.002862813649699092
1730559808321118200,2.8041181640625,0.0011983871227130294,0.0031956990715116262,-0.001797580742277205
1730559808331146200,2.814146240234375,0.0011983871227130294,0.0015978495357558131,-0.0023301972541958094
1730559808341177300,2.82417724609375,0.00226362026296556,0.0010652330238372087,-0.001797580742277205
1730559808351205600,2.83420556640625,0.000665770610794425,0.0026630824431777,-0.004460663069039583
1730559808361246000,2.844245849609375,0.000665770610794425,0.0026630824431777,-0.001797580742277205
1730559808371275500,2.854275634765625,0.000665770610794425,0.0021304660476744175,-0.0007323477184399962
1730559808381287200,2.864287109375,0.000665770610794425,0.0026630824431777,-0.0007323477184399962
1730559808391315000,2.87431494140625,0.000665770610794425,0.004260932095348835,-0.0012649642303586006
1730559808401356300,2.884356201171875,-0.0003994623839389533,0.004260932095348835,-0.0023301972541958094
1730559808411385300,2.89438525390625,-0.0003994623839389533,0.0031956990715116262,-0.001797580742277205
1730559808421419000,2.9044189453125,0.0017310036346316338,0.0031956990715116262,-0.00019973119196947664
1730559808431448600,2.914448486328125,0.000665770610794425,0.0031956990715116262,-0.003395430278033018
1730559808441480200,2.924480224609375,0.0011983871227130294,0.0037283156998455524,-0.003395430278033018
1730559808451510000,2.934510009765625,0.000665770610794425,0.0005326165119186044,0.0003328853053972125
1730559808461543700,2.944543701171875,0.0011983871227130294,0.0010652330238372087,-0.0012649642303586006
1730559808471573800,2.95457373046875,0.000665770610794425,0.0031956990715116262,-0.001797580742277205
1730559808481593300,2.96459326171875,0.0011983871227130294,0.0026630824431777,-0.0012649642303586006
1730559808491622400,2.974622314453125,0.000665770610794425,0.0015978495357558131,-0.001797580742277205
1730559808501627600,2.984627685546875,0.0001331541279796511,0.0031956990715116262,-0.002862813649699092
1730559808511654400,2.994654296875,-0.0003994623839389533,0.0026630824431777,-0.0023301972541958094
1730559808521708000,3.0047080078125,0.0001331541279796511,0.0015978495357558131,-0.0012649642303586006
1730559808531737300,3.0147373046875,0.0011983871227130294,0.0031956990715116262,-0.0012649642303586006
1730559808541740000,3.024739990234375,0.000665770610794425,0.0031956990715116262,-0.00019973119196947664
1730559808551766500,3.0347666015625,0.0001331541279796511,0.0021304660476744175,-0.0012649642303586006
1730559808561821000,3.044821044921875,0.00226362026296556,0.0037283156998455524,-0.002862813649699092
1730559808571850500,3.0548505859375,0.0027962366584688425,0.0026630824431777,-0.0023301972541958094
1730559808581874400,3.06487451171875,0.000665770610794425,0.0015978495357558131,-0.0023301972541958094
1730559808591903200,3.0749033203125,0.000665770610794425,0.004260932095348835,-0.001797580742277205
1730559808601918000,3.08491796875,-0.0003994623839389533,0.0026630824431777,-0.0012649642303586006
1730559808611945500,3.094945556640625,0.0001331541279796511,0.0021304660476744175,-0.001797580742277205
1730559808621995800,3.104995849609375,0.0017310036346316338,0.0037283156998455524,-0.0012649642303586006
1730559808632025600,3.115025634765625,0.0027962366584688425,0.0026630824431777,-0.0023301972541958094
1730559808642050800,3.12505078125,0.0001331541279796511,0.0021304660476744175,-0.001797580742277205
1730559808652080000,3.135080078125,-0.0003994623839389533,0.0026630824431777,-0.0012649642303586006
1730559808662085000,3.145085205078125,-0.0014646954368799925,0.0026630824431777,-0.0012649642303586006
1730559808672111900,3.15511181640625,0.0017310036346316338,0.0015978495357558131,-0.003928046673536301
1730559808682165500,3.16516552734375,0.0011983871227130294,0.004260932095348835,-0.0012649642303586006
1730559808692195000,3.175195068359375,0.0027962366584688425,0.0026630824431777,0.0003328853053972125
1730559808702203000,3.185202880859375,0.00226362026296556,0.0037283156998455524,-0.001797580742277205
1730559808712230100,3.195230224609375,0.0001331541279796511,0.004260932095348835,-0.0023301972541958094
1730559808722277600,3.205277587890625,0.0011983871227130294,0.0037283156998455524,-0.001797580742277205
1730559808732307000,3.215306884765625,0.0011983871227130294,0.0021304660476744175,-0.001797580742277205
1730559808742336300,3.225336181640625,0.0017310036346316338,0.0031956990715116262,0.0008655018173158169
1730559808752365800,3.23536572265625,0.000665770610794425,0.0031956990715116262,-0.001797580742277205
1730559808762392600,3.245392578125,0.0011983871227130294,0.0031956990715116262,-0.0023301972541958094
1730559808772421600,3.255421630859375,0.0001331541279796511,0.004260932095348835,-0.0023301972541958094
1730559808782448400,3.265448486328125,0.000665770610794425,0.0031956990715116262,-0.0023301972541958094
1730559808792477200,3.275477294921875,0.0001331541279796511,0.0021304660476744175,-0.001797580742277205
1730559808802495500,3.28549560546875,0.0001331541279796511,0.0037283156998455524,-0.0023301972541958094
1730559808812523500,3.2955234375,-0.0003994623839389533,0.0037283156998455524,-0.0012649642303586006
1730559808822562300,3.305562255859375,0.000665770610794425,0.0021304660476744175,-0.0012649642303586006
1730559808832591400,3.31559130859375,0.0011983871227130294,0.0037283156998455524,-0.0007323477184399962
1730559808842619000,3.325618896484375,0.0001331541279796511,0.0026630824431777,-0.0007323477184399962
1730559808852647700,3.335647705078125,-0.0003994623839389533,0.0021304660476744175,-0.001797580742277205
1730559808862659800,3.345659912109375,0.0011983871227130294,0.0026630824431777,-0.002862813649699092
1730559808872686800,3.355686767578125,0.00226362026296556,0.0031956990715116262,-0.001797580742277205
1730559808882734300,3.365734375,0.000665770610794425,0.0031956990715116262,-0.0007323477184399962
1730559808892763400,3.375763427734375,-0.0003994623839389533,0.0026630824431777,-0.002862813649699092
1730559808902768400,3.385768310546875,0.0017310036346316338,0.0031956990715116262,-0.0023301972541958094
1730559808912795100,3.395795166015625,0.0001331541279796511,0.0026630824431777,-0.0007323477184399962
1730559808922848000,3.405847900390625,-0.0003994623839389533,0.0021304660476744175,-0.001797580742277205
1730559808932877300,3.415877197265625,0.0017310036346316338,0.004260932095348835,-0.0007323477184399962
1730559808942903800,3.42590380859375,0.00226362026296556,0.004260932095348835,-0.0023301972541958094
1730559808952932900,3.435932861328125,0.000665770610794425,0.0026630824431777,-0.0023301972541958094
1730559808962964700,3.44596484375,0.0011983871227130294,0.0031956990715116262,-0.0007323477184399962
1730559808972994300,3.455994384765625,0.0011983871227130294,0.004260932095348835,-0.002862813649699092
1730559808983018800,3.466018798828125,0.0011983871227130294,0.0015978495357558131,-0.0012649642303586006
1730559808993047600,3.476047607421875,-0.0003994623839389533,0.0026630824431777,0.0003328853053972125
1730559809003057000,3.486056884765625,0.0017310036346316338,0.0037283156998455524,-0.001797580742277205
1730559809013083600,3.496083740234375,0.000665770610794425,0.0026630824431777,-0.002862813649699092
1730559809023130000,3.506130126953125,0.0001331541279796511,0.0015978495357558131,-0.0012649642303586006
1730559809033159000,3.516158935546875,0.0017310036346316338,0.0026630824431777,-0.0012649642303586006
1730559809043189800,3.526189697265625,0.0001331541279796511,0.0037283156998455524,-0.002862813649699092
1730559809053218800,3.53621875,0.0001331541279796511,0.0021304660476744175,-0.00019973119196947664
1730559809063233500,3.546233642578125,0.0017310036346316338,0.0031956990715116262,-0.0007323477184399962
1730559809073269500,3.55626953125,0.00226362026296556,0.0026630824431777,-0.0023301972541958094
1730559809083297000,3.566297119140625,0.0017310036346316338,0.0015978495357558131,-0.0012649642303586006
1730559809093331200,3.576331298828125,0.000665770610794425,0.0031956990715116262,-0.0012649642303586006
1730559809103359200,3.586359130859375,0.0017310036346316338,0.0021304660476744175,-0.0007323477184399962
1730559809113390000,3.59639013671875,0.0017310036346316338,0.0021304660476744175,-0.0023301972541958094
1730559809123418600,3.606418701171875,0.0017310036346316338,0.0037283156998455524,-0.0012649642303586006
1730559809133443000,3.616443115234375,-0.0009320789249613881,0.0026630824431777,-0.0012649642303586006
1730559809143471000,3.62647119140625,-0.0003994623839389533,0.0031956990715116262,-0.00019973119196947664
1730559809153496600,3.63649658203125,0.00226362026296556,0.0026630824431777,0.0003328853053972125
1730559809163524400,3.6465244140625,0.000665770610794425,0.0026630824431777,-0.001797580742277205
1730559809173555200,3.65655517578125,0.000665770610794425,0.0031956990715116262,-0.002862813649699092
1730559809183583200,3.666583251953125,0.0017310036346316338,0.0037283156998455524,-0.0007323477184399962
1730559809193616000,3.676615966796875,0.000665770610794425,0.0021304660476744175,-0.003928046673536301
1730559809203644400,3.68664453125,-0.0014646954368799925,0.0010652330238372087,-0.002862813649699092
1730559809213672000,3.696671875,0.0001331541279796511,0.0021304660476744175,-0.002862813649699092
1730559809223700200,3.7067001953125,0.0011983871227130294,0.0021304660476744175,-0.0007323477184399962
1730559809233730300,3.716730224609375,0.000665770610794425,0.0021304660476744175,-0.0012649642303586006
1730559809243758600,3.726758544921875,0.000665770610794425,0.0026630824431777,-0.001797580742277205
1730559809253765600,3.736765625,-0.0003994623839389533,0.0010652330238372087,-0.0007323477184399962
1730559809263792000,3.746792236328125,0.0001331541279796511,0.0010652330238372087,-0.001797580742277205
1730559809273834800,3.756834716796875,0.0001331541279796511,0.0026630824431777,-0.0007323477184399962
1730559809283862800,3.76686279296875,0.0011983871227130294,0.0026630824431777,-0.001797580742277205
1730559809293895200,3.776895263671875,0.000665770610794425,0.0037283156998455524,-0.001797580742277205
1730559809303923700,3.786923828125,-0.0003994623839389533,0.0015978495357558131,-0.001797580742277205
1730559809313960200,3.796960205078125,-0.0003994623839389533,0.0021304660476744175,-0.0012649642303586006
1730559809323989500,3.806989501953125,0.0001331541279796511,0.0026630824431777,-0.002862813649699092
1730559809334015000,3.817014892578125,0.0001331541279796511,0.0021304660476744175,-0.0023301972541958094
1730559809344043800,3.827043701171875,0.000665770610794425,0.0015978495357558131,-0.0007323477184399962
1730559809354051600,3.837051513671875,0.0011983871227130294,0.0005326165119186044,-0.0012649642303586006
1730559809364078300,3.847078369140625,0.0017310036346316338,0.0026630824431777,-0.001797580742277205
1730559809374121200,3.857121337890625,0.000665770610794425,0.0031956990715116262,-0.0023301972541958094
1730559809384149500,3.8671494140625,0.0011983871227130294,0.0026630824431777,-0.001797580742277205
1730559809394181600,3.877181640625,0.0001331541279796511,0.0026630824431777,-0.00019973119196947664
1730559809404210400,3.88721044921875,0.0017310036346316338,0.0031956990715116262,-0.0012649642303586006
1730559809414245000,3.8972451171875,0.0033288532868027687,0.0026630824431777,-0.0012649642303586006
1730559809424274400,3.9072744140625,0.0011983871227130294,0.0026630824431777,-0.002862813649699092
1730559809434281700,3.91728173828125,0.0027962366584688425,0.0047935484908521175,-0.002862813649699092
1730559809444309000,3.92730908203125,0.00226362026296556,0.0037283156998455524,-0.0012649642303586006
1730559809454343400,3.937343505859375,-0.0009320789249613881,0.0037283156998455524,-0.0012649642303586006
1730559809464371500,3.947371337890625,-0.0014646954368799925,0.0026630824431777,-0.001797580742277205
1730559809474392300,3.957392333984375,-0.0014646954368799925,0.0005326165119186044,-0.0012649642303586006
1730559809484419300,3.96741943359375,0.0011983871227130294,0.0021304660476744175,-0.0012649642303586006
1730559809494480600,3.977480712890625,0.00226362026296556,0.0021304660476744175,-0.0007323477184399962
1730559809504511200,3.98751123046875,0.0027962366584688425,0.0031956990715116262,-0.0023301972541958094
1730559809514511000,3.997510986328125,0.0027962366584688425,0.0015978495357558131,-0.0012649642303586006
1730559809524538600,4.00753857421875,0.000665770610794425,0.0021304660476744175,-0.003928046673536301
1730559809534566400,4.01756640625,0.0001331541279796511,0.0053261648863554,-0.001797580742277205
1730559809544594000,4.027593994140625,0.0027962366584688425,0.0037283156998455524,-0.00019973119196947664
1730559809554624000,4.0376240234375,0.0011983871227130294,0.0037283156998455524,-0.0023301972541958094
1730559809564652000,4.047652099609375,0.0011983871227130294,0.0037283156998455524,-0.002862813649699092
1730559809574680600,4.0576806640625,0.004394086077809334,0.004260932095348835,-0.0012649642303586006
1730559809584708600,4.06770849609375,0.0017310036346316338,0.0031956990715116262,-0.002862813649699092
1730559809594737700,4.077737548828125,-0.0003994623839389533,0.0015978495357558131,-0.0023301972541958094
1730559809604766000,4.087765869140625,0.0027962366584688425,0.0037283156998455524,-0.0012649642303586006
1730559809614792200,4.097792236328125,0.000665770610794425,0.0026630824431777,-0.0012649642303586006
1730559809624820200,4.1078203125,0.000665770610794425,0.0021304660476744175,-0.0007323477184399962
1730559809634872300,4.117872314453125,0.0011983871227130294,0.0021304660476744175,-0.0012649642303586006
1730559809644902400,4.12790234375,0.0011983871227130294,0.0037283156998455524,-0.0012649642303586006
1730559809654929700,4.1379296875,0.0011983871227130294,0.004260932095348835,-0.001797580742277205
1730559809664959700,4.147959716796875,0.000665770610794425,0.0026630824431777,-0.001797580742277205
1730559809674956000,4.1579560546875,0.0001331541279796511,0.0031956990715116262,-0.002862813649699092
1730559809684982500,4.167982421875,0.0001331541279796511,0.0037283156998455524,-0.0023301972541958094
1730559809695042600,4.17804248046875,0.000665770610794425,0.0015978495357558131,-0.0007323477184399962
1730559809705072600,4.18807275390625,0.0001331541279796511,0.0031956990715116262,-0.0012649642303586006
1730559809715096300,4.198096435546875,0.00226362026296556,0.0015978495357558131,-0.002862813649699092
1730559809725125600,4.208125732421875,0.0011983871227130294,0.0026630824431777,-0.0012649642303586006
1730559809735154400,4.218154541015625,0.000665770610794425,0.0031956990715116262,-0.00019973119196947664
1730559809745183700,4.228183837890625,0.0017310036346316338,0.0015978495357558131,-0.0012649642303586006
1730559809755209500,4.23820947265625,0.0011983871227130294,0.0026630824431777,-0.0023301972541958094
1730559809765238500,4.248238525390625,0.00226362026296556,0.0037283156998455524,-0.0023301972541958094
1730559809775268400,4.258268310546875,0.000665770610794425,0.0047935484908521175,-0.0012649642303586006
1730559809785297400,4.26829736328125,0.0011983871227130294,0.0037283156998455524,-0.002862813649699092
1730559809795325700,4.27832568359375,0.000665770610794425,0.0026630824431777,-0.0007323477184399962
1730559809805354500,4.2883544921875,0.0017310036346316338,0.0015978495357558131,-0.001797580742277205
1730559809815383300,4.29838330078125,0.0011983871227130294,0.0037283156998455524,-0.0023301972541958094
1730559809825412000,4.308412109375,-0.0003994623839389533,0.004260932095348835,-0.001797580742277205
1730559809835439600,4.318439697265625,-0.0014646954368799925,0.0031956990715116262,-0.001797580742277205
1730559809845468400,4.328468505859375,0.0011983871227130294,0.0026630824431777,0.0003328853053972125
1730559809855474200,4.33847412109375,0.00226362026296556,0.0026630824431777,-0.001797580742277205
1730559809865500700,4.348500732421875,0.0017310036346316338,0.0031956990715116262,-0.0007323477184399962
1730559809875550000,4.358550048828125,0.0001331541279796511,0.0037283156998455524,-0.0012649642303586006
1730559809885578800,4.368578857421875,0.0001331541279796511,0.0021304660476744175,-0.0007323477184399962
1730559809895604200,4.378604248046875,0.0017310036346316338,0.0031956990715116262,-0.003395430278033018
1730559809905632800,4.3886328125,0.0017310036346316338,0.004260932095348835,-0.001797580742277205
1730559809915670800,4.3986708984375,0.0001331541279796511,0.0031956990715116262,-0.0007323477184399962
1730559809925700000,4.4087001953125,0.0017310036346316338,0.0015978495357558131,-0.002862813649699092
1730559809935698200,4.4186982421875,0.0027962366584688425,0.0031956990715116262,-0.0023301972541958094
1730559809945724400,4.428724365234375,0.0017310036346316338,0.0037283156998455524,-0.0007323477184399962
1730559809955782700,4.43878271484375,0.0017310036346316338,0.0021304660476744175,-0.001797580742277205
1730559809965812200,4.448812255859375,0.00226362026296556,0.0026630824431777,-0.001797580742277205
1730559809975831800,4.458831787109375,-0.0003994623839389533,0.0021304660476744175,-0.00019973119196947664
1730559809985860000,4.468860107421875,0.000665770610794425,0.0026630824431777,-0.001797580742277205
1730559809995902700,4.47890283203125,0.000665770610794425,0.004260932095348835,-0.001797580742277205
1730559810005932500,4.4889326171875,0.0001331541279796511,0.0021304660476744175,-0.001797580742277205
1730559810015952000,4.498951904296875,0.000665770610794425,0.0031956990715116262,0.0003328853053972125
1730559810025980700,4.508980712890625,0.0011983871227130294,0.0031956990715116262,-0.0007323477184399962
1730559810036009200,4.51900927734375,0.00226362026296556,0.0031956990715116262,-0.0012649642303586006
1730559810046038000,4.5290380859375,0.0001331541279796511,0.0026630824431777,-0.0023301972541958094
1730559810056069000,4.539069091796875,-0.0003994623839389533,0.0037283156998455524,-0.0023301972541958094
1730559810066098000,4.549097900390625,0.000665770610794425,0.0037283156998455524,-0.00019973119196947664
1730559810076120000,4.5591201171875,0.0011983871227130294,0.0037283156998455524,-0.0012649642303586006
1730559810086148400,4.5691484375,0.0017310036346316338,0.0026630824431777,-0.0012649642303586006
1730559810096195000,4.579195068359375,0.0011983871227130294,0.0026630824431777,-0.001797580742277205
1730559810106225200,4.58922509765625,0.0011983871227130294,0.0015978495357558131,-0.0012649642303586006
1730559810116216600,4.599216552734375,0.000665770610794425,0.0031956990715116262,-0.0023301972541958094
1730559810126242800,4.609242919921875,-0.0003994623839389533,0.0037283156998455524,-0.0012649642303586006
1730559810136294400,4.61929443359375,0.0001331541279796511,0.0026630824431777,-0.001797580742277205
1730559810146323200,4.6293232421875,0.000665770610794425,0.0026630824431777,-0.0023301972541958094
1730559810156353300,4.639353271484375,0.000665770610794425,0.0031956990715116262,-0.001797580742277205
1730559810166382300,4.64938232421875,0.0011983871227130294,0.0021304660476744175,-0.0023301972541958094
1730559810176408800,4.659408935546875,0.000665770610794425,0.0037283156998455524,-0.0007323477184399962
1730559810186437400,4.669437255859375,0.0001331541279796511,0.0047935484908521175,-0.002862813649699092
1730559810196465000,4.67946484375,0.0001331541279796511,0.0031956990715116262,-0.002862813649699092
1730559810206493400,4.689493408203125,0.0001331541279796511,0.0010652330238372087,-0.001797580742277205
1730559810216521000,4.69952099609375,0.0001331541279796511,0.0026630824431777,-0.001797580742277205
1730559810226549200,4.70954931640625,0.0001331541279796511,0.0021304660476744175,-0.0023301972541958094
1730559810236580400,4.719580322265625,0.0011983871227130294,0.0026630824431777,-0.0012649642303586006
1730559810246609000,4.72960888671875,0.0017310036346316338,0.0037283156998455524,-0.0023301972541958094
1730559810256636000,4.739635986328125,0.000665770610794425,0.0026630824431777,-0.0007323477184399962
1730559810266664400,4.74966455078125,-0.0003994623839389533,0.0015978495357558131,-0.0007323477184399962
1730559810276695800,4.75969580078125,0.00226362026296556,0.0031956990715116262,-0.0007323477184399962
1730559810286724600,4.769724609375,0.000665770610794425,0.004260932095348835,-0.0012649642303586006
1730559810296733700,4.779733642578125,0.0011983871227130294,0.0037283156998455524,-0.001797580742277205
1730559810306801400,4.789801513671875,0.0011983871227130294,0.0015978495357558131,-0.0012649642303586006
1730559810316828200,4.799828125,0.0017310036346316338,0.0026630824431777,-0.001797580742277205
1730559810326838800,4.8098388671875,0.0017310036346316338,0.0053261648863554,-0.003928046673536301
1730559810336864000,4.819864013671875,0.0011983871227130294,0.0010652330238372087,-0.001797580742277205
1730559810346883000,4.829883056640625,0.000665770610794425,0.0010652330238372087,-0.001797580742277205
1730559810356907800,4.83990771484375,-0.0003994623839389533,0.0026630824431777,-0.0007323477184399962
1730559810366950700,4.84995068359375,-0.0003994623839389533,0.0031956990715116262,-0.0007323477184399962
1730559810376977200,4.85997705078125,0.0001331541279796511,0.0031956990715116262,-0.002862813649699092
1730559810387007200,4.87000732421875,0.000665770610794425,0.0026630824431777,-0.003395430278033018
1730559810397034000,4.880033935546875,0.0001331541279796511,0.0015978495357558131,-0.0007323477184399962
1730559810407068200,4.890068115234375,0.0011983871227130294,0.0021304660476744175,-0.0007323477184399962
1730559810417095700,4.900095703125,0.0017310036346316338,0.0021304660476744175,-0.001797580742277205
1730559810427131000,4.910130859375,0.000665770610794425,0.0026630824431777,-0.001797580742277205
1730559810437159200,4.9201591796875,0.00226362026296556,0.0037283156998455524,-0.0012649642303586006
1730559810447167500,4.93016748046875,0.0011983871227130294,0.0026630824431777,-0.00019973119196947664
1730559810457194000,4.940194091796875,-0.0003994623839389533,0.0015978495357558131,-0.002862813649699092
1730559810467200000,4.950199951171875,0.000665770610794425,0.0031956990715116262,-0.002862813649699092
1730559810477224400,4.960224365234375,0.000665770610794425,0.0037283156998455524,-0.0007323477184399962
1730559810487296500,4.970296630859375,-0.0003994623839389533,0.0021304660476744175,-0.001797580742277205
1730559810497325800,4.980325927734375,0.0011983871227130294,0.0015978495357558131,-0.002862813649699092
1730559810507348700,4.9903486328125,0.000665770610794425,0.0031956990715116262,-0.0023301972541958094
1730559810517377300,5.000377197265625,0.0001331541279796511,0.0047935484908521175,-0.0012649642303586006
1730559810527409200,5.0104091796875,0.0017310036346316338,0.0021304660476744175,-0.0023301972541958094
1730559810537438200,5.020438232421875,-0.0003994623839389533,0.0015978495357558131,-0.0012649642303586006
1730559810547441400,5.03044140625,0.000665770610794425,0.0021304660476744175,-0.0023301972541958094
1730559810557467600,5.040467529296875,0.0017310036346316338,0.0021304660476744175,-0.001797580742277205
1730559810567524400,5.0505244140625,0.0001331541279796511,0.0015978495357558131,-0.001797580742277205
1730559810577553700,5.0605537109375,0.0001331541279796511,0.0015978495357558131,-0.0007323477184399962
1730559810587574300,5.07057421875,0.00226362026296556,0.0031956990715116262,0.0003328853053972125
1730559810597602600,5.0806025390625,0.0017310036346316338,0.0026630824431777,-0.0007323477184399962
1730559810607637000,5.090636962890625,0.0001331541279796511,0.0021304660476744175,-0.0007323477184399962
1730559810617666000,5.100666015625,0.0001331541279796511,0.0031956990715116262,-0.00019973119196947664
1730559810627689000,5.11068896484375,0.0017310036346316338,0.0026630824431777,-0.001797580742277205
1730559810637717500,5.120717529296875,0.0011983871227130294,0.0021304660476744175,-0.001797580742277205
1730559810647753200,5.130753173828125,0.000665770610794425,0.0015978495357558131,-0.001797580742277205
1730559810657782500,5.140782470703125,0.0011983871227130294,0.0037283156998455524,-0.001797580742277205
1730559810667800000,5.150800048828125,0.0011983871227130294,0.0015978495357558131,-0.0023301972541958094
1730559810677828000,5.160828125,0.000665770610794425,0.0005326165119186044,-0.0012649642303586006
1730559810687854000,5.17085400390625,0.0001331541279796511,0.0026630824431777,-0.002862813649699092
1730559810697881900,5.1808818359375,0.0017310036346316338,0.0047935484908521175,-0.0012649642303586006
1730559810707904500,5.190904541015625,0.000665770610794425,0.0026630824431777,-0.00019973119196947664
1730559810717931800,5.200931884765625,-0.0009320789249613881,0.0031956990715116262,-0.0023301972541958094
1730559810727941000,5.210941162109375,0.0001331541279796511,0.0021304660476744175,-0.0012649642303586006
1730559810737966600,5.220966552734375,-0.0009320789249613881,0.0031956990715116262,-0.0007323477184399962
1730559810748029000,5.23102880859375,-0.0014646954368799925,0.0026630824431777,-0.001797580742277205
1730559810758058200,5.241058349609375,0.0027962366584688425,0.0021304660476744175,-0.003928046673536301
1730559810768078800,5.251078857421875,0.000665770610794425,0.0026630824431777,-0.002862813649699092
1730559810778107100,5.261107177734375,0.0001331541279796511,0.0031956990715116262,-0.0007323477184399962
1730559810788138800,5.271138671875,0.0001331541279796511,0.0037283156998455524,-0.0023301972541958094
1730559810798167600,5.28116748046875,0.0011983871227130294,0.0026630824431777,-0.0023301972541958094
1730559810808189400,5.291189453125,0.0001331541279796511,0.0026630824431777,-0.001797580742277205
1730559810818217500,5.301217529296875,-0.0003994623839389533,0.0015978495357558131,-0.001797580742277205
1730559810828254200,5.311254150390625,0.0001331541279796511,0.0021304660476744175,-0.0007323477184399962
1730559810838283300,5.321283203125,0.0017310036346316338,0.004260932095348835,-0.0023301972541958094
1730559810848307200,5.33130712890625,0.00226362026296556,0.0026630824431777,-0.005525896325707436
1730559810858335700,5.341335693359375,0.0001331541279796511,0.0026630824431777,-0.0023301972541958094
1730559810868362500,5.351362548828125,0.000665770610794425,0.0031956990715116262,-0.002862813649699092
1730559810878390800,5.361390869140625,0.0001331541279796511,0.0026630824431777,-0.001797580742277205
1730559810888418800,5.371418701171875,0.000665770610794425,0.0026630824431777,-0.0007323477184399962
1730559810898447000,5.381447021484375,0.0001331541279796511,0.0026630824431777,-0.0012649642303586006
1730559810908494800,5.391494873046875,-0.0003994623839389533,0.0021304660476744175,-0.001797580742277205
1730559810918525200,5.401525146484375,-0.0003994623839389533,0.0026630824431777,-0.001797580742277205
1730559810928549400,5.41154931640625,0.0011983871227130294,0.0031956990715116262,-0.0023301972541958094
1730559810938579200,5.4215791015625,0.0027962366584688425,0.0021304660476744175,-0.0012649642303586006
1730559810948592000,5.431592041015625,0.0011983871227130294,0.0010652330238372087,-0.00019973119196947664
1730559810958620000,5.441619873046875,0.0001331541279796511,0.0021304660476744175,-0.00019973119196947664
1730559810968681000,5.451680908203125,0.000665770610794425,0.0031956990715116262,-0.001797580742277205
1730559810978712300,5.46171240234375,0.0001331541279796511,0.0021304660476744175,-0.001797580742277205
1730559810988691200,5.471691162109375,0.0011983871227130294,0.0026630824431777,-0.0012649642303586006
1730559810998717200,5.48171728515625,0.0017310036346316338,0.0026630824431777,-0.001797580742277205
1730559811008778800,5.49177880859375,0.0001331541279796511,0.0026630824431777,-0.0023301972541958094
1730559811018808300,5.501808349609375,0.000665770610794425,0.0026630824431777,-0.0012649642303586006
1730559811028833300,5.511833251953125,0.0017310036346316338,0.0021304660476744175,-0.00019973119196947664
1730559811038862300,5.5218623046875,0.0001331541279796511,0.0037283156998455524,-0.0012649642303586006
1730559811048880400,5.53188037109375,0.000665770610794425,0.004260932095348835,-0.0023301972541958094
1730559811058908400,5.541908447265625,0.0011983871227130294,0.0021304660476744175,-0.0012649642303586006
1730559811068953300,5.551953369140625,0.0011983871227130294,0.0005326165119186044,-0.001797580742277205
1730559811078983000,5.56198291015625,0.000665770610794425,0.0026630824431777,-0.001797580742277205
1730559811089014300,5.57201416015625,0.0011983871227130294,0.0031956990715116262,-0.0023301972541958094
1730559811099044000,5.582044189453125,0.0011983871227130294,0.0026630824431777,-0.0023301972541958094
1730559811109064000,5.59206396484375,0.0011983871227130294,0.0015978495357558131,-0.0012649642303586006
1730559811119092700,5.6020927734375,-0.0009320789249613881,0.0015978495357558131,-0.0012649642303586006
1730559811129122300,5.612122314453125,0.00226362026296556,0.0015978495357558131,-0.00019973119196947664
1730559811139151000,5.622151123046875,0.0038614696823060513,0.0037283156998455524,-0.0012649642303586006
1730559811149158700,5.63215869140625,0.0011983871227130294,0.0026630824431777,-0.0023301972541958094
1730559811159185200,5.64218505859375,-0.0014646954368799925,0.0026630824431777,-0.0007323477184399962
1730559811169234000,5.65223388671875,-0.0003994623839389533,0.0026630824431777,-0.0007323477184399962
1730559811179262700,5.6622626953125,0.0017310036346316338,0.0037283156998455524,-0.0012649642303586006
1730559811189288700,5.672288818359375,0.00226362026296556,0.0037283156998455524,-0.001797580742277205
1730559811199317200,5.682317138671875,-0.0003994623839389533,0.0031956990715116262,-0.001797580742277205
1730559811209347800,5.692347900390625,0.00226362026296556,0.0031956990715116262,-0.0023301972541958094
1730559811219376600,5.702376708984375,0.00226362026296556,0.004260932095348835,-0.002862813649699092
1730559811229404400,5.712404296875,0.0001331541279796511,0.0031956990715116262,-0.001797580742277205
1730559811239433000,5.722432861328125,-0.0014646954368799925,0.0026630824431777,-0.001797580742277205
1730559811249458000,5.7324580078125,0.0001331541279796511,0.0015978495357558131,-0.001797580742277205
1730559811259486200,5.742486328125,0.0017310036346316338,0.0021304660476744175,-0.001797580742277205
1730559811269519000,5.75251904296875,0.000665770610794425,0.0026630824431777,-0.001797580742277205
1730559811279548000,5.7625478515625,-0.0014646954368799925,0.0015978495357558131,-0.001797580742277205
1730559811289577000,5.772576904296875,0.0001331541279796511,0.0005326165119186044,-0.0012649642303586006
1730559811299606000,5.78260595703125,0.000665770610794425,0.0015978495357558131,-0.002862813649699092
1730559811309633800,5.7926337890625,0.000665770610794425,0.0026630824431777,-0.0007323477184399962
1730559811319662600,5.80266259765625,0.0011983871227130294,0.0026630824431777,-0.0023301972541958094
1730559811329688300,5.812688232421875,0.0011983871227130294,0.0015978495357558131,-0.002862813649699092
1730559811339716600,5.822716552734375,0.0017310036346316338,0.0021304660476744175,-0.0023301972541958094
1730559811349722600,5.83272265625,0.0001331541279796511,0.004260932095348835,-0.0012649642303586006
1730559811359748900,5.842748779296875,0.0001331541279796511,0.0037283156998455524,-0.001797580742277205
1730559811369812200,5.852812255859375,0.0001331541279796511,0.0031956990715116262,-0.001797580742277205
1730559811379842000,5.862842041015625,0.0001331541279796511,0.0026630824431777,-0.001797580742277205
1730559811389860900,5.87286083984375,0.000665770610794425,0.0015978495357558131,-0.0023301972541958094
1730559811399889700,5.8828896484375,0.0011983871227130294,0.0010652330238372087,-0.001797580742277205
1730559811409922600,5.892922607421875,0.000665770610794425,0.004260932095348835,-0.0012649642303586006
1730559811419951900,5.902951904296875,0.000665770610794425,0.0031956990715116262,-0.0023301972541958094
1730559811429948400,5.912948486328125,0.00226362026296556,0.0031956990715116262,-0.0023301972541958094
1730559811439974400,5.922974365234375,0.00226362026296556,0.0031956990715116262,-0.001797580742277205
1730559811450024700,5.933024658203125,0.0001331541279796511,0.0031956990715116262,-0.0012649642303586006
1730559811460053200,5.94305322265625,0.0011983871227130294,0.0026630824431777,-0.002862813649699092
1730559811470088200,5.953088134765625,0.0011983871227130294,0.0021304660476744175,-0.0007323477184399962
1730559811480117200,5.9631171875,0.0017310036346316338,0.0026630824431777,-0.0012649642303586006
1730559811490147300,5.973147216796875,0.0011983871227130294,0.0026630824431777,-0.002862813649699092
1730559811500176400,5.98317626953125,0.00226362026296556,0.0026630824431777,-0.001797580742277205
1730559811510179600,5.9931796875,0.0033288532868027687,0.004260932095348835,-0.0012649642303586006
1730559811520206000,6.0032060546875,0.0011983871227130294,0.0026630824431777,-0.0007323477184399962
1730559811530259000,6.013259033203125,0.0011983871227130294,0.0031956990715116262,-0.002862813649699092
1730559811540288300,6.023288330078125,0.000665770610794425,0.0031956990715116262,-0.001797580742277205
1730559811550314200,6.033314208984375,0.0001331541279796511,0.0031956990715116262,-0.0012649642303586006
1730559811560343000,6.043343017578125,0.0001331541279796511,0.0005326165119186044,-0.002862813649699092
1730559811570373000,6.053373046875,0.0011983871227130294,0.0037283156998455524,-0.0012649642303586006
1730559811580402200,6.063402099609375,0.0001331541279796511,0.0021304660476744175,-0.0007323477184399962
1730559811590426600,6.073426513671875,0.000665770610794425,0.0021304660476744175,-0.00019973119196947664
1730559811600455200,6.083455078125,0.00226362026296556,0.004260932095348835,-0.0023301972541958094
1730559811610444300,6.0934443359375,0.0001331541279796511,0.0037283156998455524,-0.002862813649699092
1730559811620469000,6.103468994140625,0.0001331541279796511,0.0021304660476744175,-0.0023301972541958094
1730559811630545000,6.113544921875,-0.0003994623839389533,0.0021304660476744175,0.0003328853053972125
1730559811640574700,6.12357470703125,-0.0014646954368799925,0.0015978495357558131,0.0013981183292344213
1730559811650584800,6.133584716796875,0.000665770610794425,0.0010652330238372087,-0.0007323477184399962
1730559811660612600,6.143612548828125,0.000665770610794425,0.0031956990715116262,-0.0012649642303586006
1730559811670656000,6.153656005859375,0.0017310036346316338,0.0031956990715116262,-0.001797580742277205
1730559811680685300,6.163685302734375,0.0011983871227130294,0.0031956990715116262,-0.0023301972541958094
1730559811690705700,6.17370556640625,0.0011983871227130294,0.0026630824431777,-0.002862813649699092
1730559811700734200,6.183734130859375,0.0017310036346316338,0.0021304660476744175,-0.003395430278033018
1730559811710779600,6.193779541015625,0.0017310036346316338,0.0031956990715116262,-0.001797580742277205
1730559811720809700,6.203809814453125,-0.0003994623839389533,0.0026630824431777,-0.003395430278033018
1730559811730825700,6.21382568359375,0.0011983871227130294,0.0031956990715116262,-0.0023301972541958094
1730559811740854500,6.2238544921875,0.0001331541279796511,0.0031956990715116262,-0.001797580742277205
1730559811750875100,6.233875244140625,-0.0009320789249613881,0.0037283156998455524,-0.0023301972541958094
1730559811760903200,6.243903076171875,0.000665770610794425,0.0031956990715116262,-0.002862813649699092
1730559811770945800,6.25394580078125,0.0011983871227130294,0.0026630824431777,-0.0012649642303586006
1730559811780975400,6.263975341796875,0.0011983871227130294,0.0026630824431777,-0.0007323477184399962
1730559811790997500,6.27399755859375,0.0001331541279796511,0.0037283156998455524,-0.0007323477184399962
1730559811801026000,6.284026123046875,0.0011983871227130294,0.0026630824431777,-0.0012649642303586006
1730559811811061200,6.294061279296875,0.0001331541279796511,0.0031956990715116262,-0.0023301972541958094
1730559811821090600,6.304090576171875,0.000665770610794425,0.0037283156998455524,-0.0012649642303586006
1730559811831115300,6.314115234375,0.00226362026296556,0.0026630824431777,-0.001797580742277205
1730559811841144300,6.324144287109375,0.0017310036346316338,0.0026630824431777,-0.0023301972541958094
1730559811851152100,6.334152099609375,0.0017310036346316338,0.0021304660476744175,-0.0007323477184399962
1730559811861179000,6.344178955078125,0.0011983871227130294,0.0021304660476744175,-0.0012649642303586006
1730559811871230000,6.35422998046875,0.000665770610794425,0.0021304660476744175,-0.0012649642303586006
1730559811881259000,6.364259033203125,0.000665770610794425,0.0021304660476744175,-0.001797580742277205
1730559811891281000,6.374281005859375,0.0011983871227130294,0.0015978495357558131,-0.0023301972541958094
1730559811901309400,6.384309326171875,0.0011983871227130294,0.0026630824431777,-0.0012649642303586006
1730559811911338000,6.394337890625,0.000665770610794425,0.0026630824431777,-0.001797580742277205
1730559811921366500,6.404366455078125,0.000665770610794425,0.0010652330238372087,-0.0012649642303586006
1730559811931382500,6.414382568359375,0.0011983871227130294,0.0015978495357558131,-0.001797580742277205
1730559811941409800,6.424409912109375,0.0017310036346316338,0.0021304660476744175,-0.0023301972541958094
1730559811951453200,6.434453125,0.0017310036346316338,0.0031956990715116262,0.0003328853053972125
1730559811961482000,6.44448193359375,-0.0009320789249613881,0.0015978495357558131,-0.00019973119196947664
1730559811971496700,6.45449658203125,0.0017310036346316338,0.0026630824431777,-0.001797580742277205
1730559811981524200,6.464524169921875,0.0001331541279796511,0.0031956990715116262,-0.001797580742277205
1730559811991555600,6.4745556640625,0.000665770610794425,0.0031956990715116262,-0.001797580742277205
1730559812001583400,6.484583251953125,0.0011983871227130294,0.0026630824431777,-0.002862813649699092
1730559812011613400,6.494613525390625,0.0017310036346316338,0.0021304660476744175,-0.002862813649699092
1730559812021641500,6.504641357421875,0.0017310036346316338,0.0031956990715116262,-0.0007323477184399962
1730559812031672300,6.51467236328125,-0.0003994623839389533,0.0026630824431777,-0.001797580742277205
1730559812041700600,6.52470068359375,0.0017310036346316338,0.0015978495357558131,-0.0007323477184399962
1730559812051732700,6.534732666015625,0.0011983871227130294,0.0015978495357558131,-0.00019973119196947664
1730559812061761500,6.544761474609375,-0.0009320789249613881,0.0005326165119186044,-0.001797580742277205
1730559812071789800,6.554789794921875,-0.0003994623839389533,0.0037283156998455524,-0.0023301972541958094
1730559812081818600,6.564818603515625,0.0011983871227130294,0.0026630824431777,-0.001797580742277205
1730559812091847400,6.574847412109375,0.00226362026296556,0.0037283156998455524,-0.002862813649699092
1730559812101876200,6.584876220703125,0.00226362026296556,0.0031956990715116262,-0.002862813649699092
1730559812111904000,6.594904052734375,0.0011983871227130294,0.0021304660476744175,-0.001797580742277205
1730559812121932500,6.6049326171875,0.000665770610794425,0.0021304660476744175,-0.002862813649699092
1730559812131962400,6.61496240234375,0.0001331541279796511,0.004260932095348835,-0.0012649642303586006
1730559812141991200,6.6249912109375,0.0011983871227130294,0.0037283156998455524,-0.00019973119196947664
1730559812152021000,6.63502099609375,0.000665770610794425,0.0021304660476744175,-0.0007323477184399962
1730559812162050000,6.645050048828125,0.0001331541279796511,0.0037283156998455524,-0.0012649642303586006
1730559812172093400,6.655093505859375,0.000665770610794425,0.0026630824431777,-0.0012649642303586006
1730559812182123800,6.665123779296875,0.000665770610794425,0.0026630824431777,-0.001797580742277205
1730559812192146200,6.675146240234375,0.000665770610794425,0.0026630824431777,-0.001797580742277205
1730559812202175700,6.68517578125,0.0017310036346316338,0.0031956990715116262,-0.001797580742277205
1730559812212178400,6.695178466796875,0.0011983871227130294,0.004260932095348835,-0.0007323477184399962
1730559812222205200,6.705205078125,0.000665770610794425,0.0015978495357558131,-0.001797580742277205
1730559812232263400,6.715263427734375,0.0017310036346316338,0.0015978495357558131,-0.001797580742277205
1730559812242293200,6.725293212890625,0.000665770610794425,0.0005326165119186044,-0.0007323477184399962
1730559812252307200,6.73530712890625,0.000665770610794425,0.0037283156998455524,-0.00019973119196947664
1730559812262335500,6.74533544921875,0.0001331541279796511,0.0021304660476744175,-0.003928046673536301
1730559812272373000,6.755373046875,-0.0003994623839389533,0,-0.0023301972541958094
1730559812282392600,6.765392578125,0.000665770610794425,0.0015978495357558131,-0.001797580742277205
1730559812292422000,6.775421875,0.0017310036346316338,0.0026630824431777,-0.0023301972541958094
1730559812302451200,6.785451171875,0.000665770610794425,0.0037283156998455524,-0.001797580742277205
1730559812312475400,6.795475341796875,0.0017310036346316338,0.0031956990715116262,-0.001797580742277205
1730559812322504200,6.805504150390625,0.0017310036346316338,0.0026630824431777,-0.00019973119196947664
1730559812332558800,6.815558837890625,0.000665770610794425,0.0021304660476744175,-0.001797580742277205
1730559812342590200,6.825590087890625,0.000665770610794425,0.0021304660476744175,-0.0023301972541958094
1730559812352592000,6.835591796875,0.0011983871227130294,0.0031956990715116262,-0.003395430278033018
1730559812362620400,6.845620361328125,0.0011983871227130294,0.0031956990715116262,-0.0023301972541958094
1730559812372645000,6.85564501953125,0.0017310036346316338,0.0037283156998455524,-0.001797580742277205
1730559812382673200,6.865673095703125,0.000665770610794425,0.0021304660476744175,-0.00019973119196947664
1730559812392685300,6.875685302734375,0.000665770610794425,0.0037283156998455524,-0.0007323477184399962
1730559812402711800,6.8857119140625,0.0011983871227130294,0.0031956990715116262,-0.0023301972541958094
1730559812412762400,6.895762451171875,0.0011983871227130294,0.0021304660476744175,-0.0007323477184399962
1730559812422791400,6.90579150390625,0.00226362026296556,0.0031956990715116262,-0.0007323477184399962
1730559812432814000,6.91581396484375,0.0001331541279796511,0.004260932095348835,-0.0023301972541958094
1730559812442842400,6.92584228515625,-0.0003994623839389533,0.0037283156998455524,-0.002862813649699092
1730559812452874200,6.935874267578125,0.0033288532868027687,0.004260932095348835,-0.0023301972541958094
1730559812462902800,6.94590283203125,0.000665770610794425,0.0021304660476744175,-0.001797580742277205
1730559812472926200,6.95592626953125,0.000665770610794425,0.0015978495357558131,-0.0007323477184399962
1730559812482954200,6.965954345703125,-0.0009320789249613881,0.0015978495357558131,-0.00019973119196947664
1730559812492988400,6.975988525390625,0.0001331541279796511,0.0015978495357558131,-0.0007323477184399962
1730559812503017200,6.986017333984375,0.000665770610794425,0.0031956990715116262,-0.0023301972541958094
1730559812513041700,6.996041748046875,0.000665770610794425,0.0031956990715116262,-0.001797580742277205
1730559812523070000,7.006070068359375,0.0001331541279796511,0.0031956990715116262,-0.001797580742277205
1730559812533096700,7.0160966796875,0.000665770610794425,0.0026630824431777,-0.001797580742277205
1730559812543124700,7.026124755859375,0.00226362026296556,0.0031956990715116262,-0.0023301972541958094
1730559812553127200,7.036127197265625,0.0017310036346316338,0.0031956990715116262,-0.003395430278033018
1730559812563153000,7.04615283203125,0.0011983871227130294,0.0031956990715116262,-0.0012649642303586006
1730559812573216000,7.056216064453125,-0.0009320789249613881,0.0026630824431777,-0.0023301972541958094
1730559812583245300,7.066245361328125,0.0017310036346316338,0.0031956990715116262,-0.002862813649699092
1730559812593286100,7.0762861328125,0.0017310036346316338,0.0021304660476744175,-0.002862813649699092
1730559812603316700,7.086316650390625,0.0011983871227130294,0.0031956990715116262,-0.00019973119196947664
1730559812613332500,7.09633251953125,0.0011983871227130294,0.0031956990715116262,-0.0007323477184399962
1730559812623361500,7.106361572265625,0.0001331541279796511,0.0021304660476744175,-0.003395430278033018
1730559812633394400,7.11639453125,0.0001331541279796511,0.0037283156998455524,-0.0023301972541958094
1730559812643423700,7.126423828125,-0.0003994623839389533,0.0026630824431777,-0.001797580742277205
1730559812653426000,7.136426025390625,0.000665770610794425,0.0037283156998455524,-0.002862813649699092
1730559812663452700,7.14645263671875,0.0017310036346316338,0.0021304660476744175,-0.001797580742277205
1730559812673489000,7.156489013671875,-0.0003994623839389533,0.0005326165119186044,-0.001797580742277205
1730559812683516700,7.1665166015625,0.000665770610794425,0.0015978495357558131,-0.0012649642303586006
1730559812693568800,7.17656884765625,0.0017310036346316338,0.0026630824431777,-0.001797580742277205
1730559812703598800,7.186598876953125,0.00226362026296556,0.0037283156998455524,-0.001797580742277205
1730559812713615400,7.196615478515625,-0.0009320789249613881,0.0021304660476744175,-0.00019973119196947664
1730559812723644200,7.20664404296875,-0.0003994623839389533,0.0021304660476744175,-0.001797580742277205
1730559812733681700,7.216681640625,0.0017310036346316338,0.0031956990715116262,-0.002862813649699092
1730559812743711200,7.226711181640625,0.000665770610794425,0.0037283156998455524,-0.00019973119196947664
1730559812753735700,7.236735595703125,0.0001331541279796511,0.0031956990715116262,-0.0023301972541958094
1730559812763765000,7.246764892578125,-0.0014646954368799925,0.0010652330238372087,-0.0012649642303586006
1730559812773779200,7.256779296875,0.000665770610794425,0,-0.001797580742277205
1730559812783806700,7.266806640625,0.0017310036346316338,0.004260932095348835,-0.003928046673536301
1730559812793855500,7.27685546875,0.0001331541279796511,0.0037283156998455524,-0.0023301972541958094
1730559812803885300,7.28688525390625,0.00226362026296556,0.0031956990715116262,-0.001797580742277205
1730559812813904100,7.296904052734375,0.0017310036346316338,0.0021304660476744175,-0.001797580742277205
1730559812823932700,7.3069326171875,-0.0003994623839389533,0.0010652330238372087,-0.0007323477184399962
1730559812833961200,7.316961181640625,0.0011983871227130294,0.0037283156998455524,-0.00019973119196947664
1730559812843990000,7.326989990234375,0.0038614696823060513,0.0031956990715116262,-0.001797580742277205
1730559812854026000,7.33702587890625,0.0027962366584688425,0.0015978495357558131,-0.001797580742277205
1730559812864055600,7.3470556640625,0.0017310036346316338,0.0026630824431777,-0.001797580742277205
1730559812874061000,7.35706103515625,0.0017310036346316338,0.0026630824431777,-0.0007323477184399962
1730559812884087800,7.367087890625,0.0011983871227130294,0.0026630824431777,-0.001797580742277205
1730559812894134000,7.377134033203125,0.00226362026296556,0.0031956990715116262,-0.001797580742277205
1730559812904163000,7.3871630859375,0.0011983871227130294,0.0026630824431777,0.0003328853053972125
1730559812914169600,7.397169677734375,0.0001331541279796511,0.0031956990715116262,-0.0012649642303586006
1730559812924196400,7.4071962890625,0.0001331541279796511,0.0015978495357558131,-0.003395430278033018
1730559812934250000,7.41725,0.0001331541279796511,0.0031956990715116262,-0.001797580742277205
1730559812944279300,7.427279296875,0.000665770610794425,0.004260932095348835,-0.0007323477184399962
1730559812954306000,7.43730615234375,0.0017310036346316338,0.0047935484908521175,-0.003395430278033018
1730559812964335000,7.447335205078125,0.0017310036346316338,0.0037283156998455524,-0.0023301972541958094
1730559812974341400,7.45734130859375,0.000665770610794425,0.0026630824431777,0.0003328853053972125
1730559812984368000,7.4673681640625,0.0033288532868027687,0.0037283156998455524,-0.0012649642303586006
1730559812994417400,7.47741748046875,0.0017310036346316338,0.0037283156998455524,-0.003395430278033018
1730559813004446500,7.487446533203125,0.0001331541279796511,0.0031956990715116262,-0.002862813649699092
1730559813014473700,7.4974736328125,-0.0003994623839389533,0.0026630824431777,-0.001797580742277205
1730559813024502500,7.50750244140625,0.000665770610794425,0.0021304660476744175,-0.001797580742277205
1730559813034529000,7.517529052734375,0.0011983871227130294,0.0015978495357558131,0.0003328853053972125
1730559813044557600,7.5275576171875,0.0017310036346316338,0.0026630824431777,-0.001797580742277205
1730559813054591200,7.53759130859375,0.0001331541279796511,0.0031956990715116262,-0.002862813649699092
1730559813064620300,7.547620361328125,0.000665770610794425,0.0021304660476744175,-0.001797580742277205
1730559813074638600,7.557638671875,0.0017310036346316338,0.0031956990715116262,-0.0012649642303586006
1730559813084666600,7.56766650390625,0.000665770610794425,0.0037283156998455524,-0.0023301972541958094
1730559813094703600,7.57770361328125,0.000665770610794425,0.0015978495357558131,-0.0023301972541958094
1730559813104732400,7.587732421875,0.000665770610794425,0.0026630824431777,-0.00019973119196947664
1730559813114758700,7.597758544921875,0.0001331541279796511,0.0037283156998455524,-0.00019973119196947664
1730559813124787500,7.607787353515625,0.0001331541279796511,0.0026630824431777,-0.003395430278033018
1730559813134819600,7.617819580078125,0.0017310036346316338,0.0010652330238372087,-0.0023301972541958094
1730559813144848600,7.6278486328125,0.0017310036346316338,0.0021304660476744175,-0.002862813649699092
1730559813154886400,7.637886474609375,-0.0014646954368799925,0.0005326165119186044,-0.001797580742277205
1730559813164916200,7.647916259765625,0.0011983871227130294,0.0031956990715116262,-0.00019973119196947664
1730559813174928000,7.657927978515625,0.00226362026296556,0.0031956990715116262,-0.003928046673536301
1730559813184956000,7.667955810546875,0.0011983871227130294,0.0015978495357558131,-0.0023301972541958094
1730559813194992000,7.6779921875,-0.0003994623839389533,0.0005326165119186044,0.0003328853053972125
1730559813205021200,7.688021240234375,0.000665770610794425,0.0026630824431777,-0.0012649642303586006
1730559813215050800,7.69805078125,0.0017310036346316338,0.0026630824431777,-0.0012649642303586006
1730559813225079600,7.70807958984375,-0.0014646954368799925,0.0026630824431777,-0.0012649642303586006
1730559813235098600,7.7180986328125,0.0017310036346316338,0.0021304660476744175,-0.0023301972541958094
1730559813245126400,7.72812646484375,0.0027962366584688425,0.0037283156998455524,-0.001797580742277205
1730559813255160000,7.73816015625,0.000665770610794425,0.0015978495357558131,-0.002862813649699092
1730559813265188400,7.748188232421875,0.0011983871227130294,0.0015978495357558131,-0.003928046673536301
1730559813275187000,7.75818701171875,0.0017310036346316338,0.0031956990715116262,-0.001797580742277205
1730559813285212400,7.76821240234375,0.0017310036346316338,0.0031956990715116262,0.0003328853053972125
1730559813295276800,7.77827685546875,0.0001331541279796511,0.004260932095348835,-0.00019973119196947664
1730559813305306000,7.78830615234375,0.00226362026296556,0.0031956990715116262,-0.0023301972541958094
1730559813315333600,7.798333740234375,0.0027962366584688425,0.0037283156998455524,-0.0012649642303586006
1730559813325363000,7.808363037109375,0.00226362026296556,0.0026630824431777,0.0008655018173158169
1730559813335385900,7.8183857421875,0.0011983871227130294,0.0015978495357558131,-0.0012649642303586006
1730559813345414400,7.828414306640625,0.0011983871227130294,0.0026630824431777,-0.002862813649699092
1730559813355427300,7.83842724609375,0.0017310036346316338,0.0015978495357558131,-0.003395430278033018
1730559813365454000,7.8484541015625,0.0001331541279796511,0.0037283156998455524,-0.001797580742277205
1730559813375483400,7.8584833984375,0.0001331541279796511,0.0026630824431777,-0.001797580742277205
1730559813385510700,7.8685107421875,0.0001331541279796511,0.0010652330238372087,-0.002862813649699092
1730559813395559700,7.8785595703125,0.0017310036346316338,0.0021304660476744175,-0.003395430278033018
1730559813405589000,7.888589111328125,0.00226362026296556,0.004260932095348835,-0.002862813649699092
1730559813415589400,7.89858935546875,0.000665770610794425,0.004260932095348835,-0.0023301972541958094
1730559813425616000,7.908615966796875,0.0017310036346316338,0.0010652330238372087,-0.002862813649699092
1730559813435650800,7.91865087890625,0.0017310036346316338,0.0031956990715116262,-0.0007323477184399962
1730559813445678000,7.928677978515625,0.0011983871227130294,0.0015978495357558131,0.0003328853053972125
1730559813455732500,7.938732421875,0.000665770610794425,0.0026630824431777,-0.0007323477184399962
1730559813465762600,7.948762451171875,0.000665770610794425,0.0021304660476744175,-0.001797580742277205
1730559813475774200,7.958774169921875,0.000665770610794425,0.0037283156998455524,-0.0007323477184399962
1730559813485802200,7.96880224609375,0.000665770610794425,0.0047935484908521175,-0.002862813649699092
1730559813495849700,7.978849609375,0.0011983871227130294,0.0026630824431777,-0.003395430278033018
1730559813505879800,7.9888798828125,0.0001331541279796511,0.0015978495357558131,0.0003328853053972125
1730559813515904500,7.998904541015625,0.000665770610794425,0.0021304660476744175,-0.0012649642303586006
1730559813525934300,8.008934326171875,0.0001331541279796511,0.0037283156998455524,-0.0023301972541958094
1730559813535960800,8.0189609375,0.0011983871227130294,0.0037283156998455524,-0.0012649642303586006
1730559813545990100,8.028990234375,0.0011983871227130294,0.0031956990715116262,-0.0012649642303586006
1730559813556018200,8.03901806640625,0.000665770610794425,0.0026630824431777,-0.0007323477184399962
1730559813566047200,8.049047119140624,0.0001331541279796511,0.0021304660476744175,-0.001797580742277205
1730559813576075300,8.0590751953125,0.0001331541279796511,0.0026630824431777,-0.0023301972541958094
1730559813586104300,8.069104248046875,0.000665770610794425,0.0031956990715116262,-0.00019973119196947664
1730559813596117000,8.079116943359375,0.000665770610794425,0.0031956990715116262,-0.0023301972541958094
1730559813606144300,8.089144287109375,0.0001331541279796511,0.0026630824431777,-0.001797580742277205
1730559813616149200,8.099149169921875,-0.0003994623839389533,0.0031956990715116262,-0.0007323477184399962
1730559813626174500,8.109174560546874,-0.0009320789249613881,0.0026630824431777,-0.00019973119196947664
1730559813636235000,8.119235107421876,0.0017310036346316338,0.0031956990715116262,-0.001797580742277205
1730559813646263800,8.129263916015624,0.0011983871227130294,0.0031956990715116262,-0.001797580742277205
1730559813656296200,8.139296142578125,0.0001331541279796511,0.0021304660476744175,-0.0007323477184399962
1730559813666325200,8.1493251953125,0.0011983871227130294,0.0021304660476744175,-0.002862813649699092
1730559813676349000,8.159348876953125,0.0011983871227130294,0.0021304660476744175,-0.001797580742277205
1730559813686377500,8.16937744140625,0.000665770610794425,0.0031956990715116262,-0.0007323477184399962
1730559813696400400,8.179400390625,-0.0003994623839389533,0.0031956990715116262,-0.0012649642303586006
1730559813706428200,8.18942822265625,0.0001331541279796511,0.0031956990715116262,-0.001797580742277205
1730559813716460500,8.19946044921875,0.0017310036346316338,0.004260932095348835,-0.00019973119196947664
1730559813726488800,8.20948876953125,0.000665770610794425,0.0037283156998455524,-0.0023301972541958094
1730559813736519200,8.219519287109375,0.00226362026296556,0.0031956990715116262,-0.003395430278033018
1730559813746547700,8.229547607421875,0.000665770610794425,0.0021304660476744175,-0.003395430278033018
1730559813756575500,8.239575439453125,0.0017310036346316338,0.004260932095348835,-0.001797580742277205
1730559813766603800,8.249603759765625,0.0017310036346316338,0.0015978495357558131,-0.001797580742277205
1730559813776628500,8.25962841796875,0.0011983871227130294,0.0026630824431777,-0.0012649642303586006
1730559813786656500,8.269656494140625,0.0017310036346316338,0.0021304660476744175,-0.001797580742277205
1730559813796695000,8.279695068359375,0.0011983871227130294,0.0031956990715116262,-0.0012649642303586006
1730559813806724400,8.289724365234376,-0.001997311832383275,0.0026630824431777,-0.001797580742277205
1730559813816744000,8.299743896484374,0.0011983871227130294,0.0015978495357558131,-0.001797580742277205
1730559813826772200,8.309772216796874,0.0011983871227130294,0.0037283156998455524,-0.003395430278033018
1730559813836812000,8.31981201171875,-0.0009320789249613881,0.0021304660476744175,-0.0012649642303586006
1730559813846841300,8.32984130859375,-0.0003994623839389533,0.0031956990715116262,-0.0012649642303586006
1730559813856868600,8.33986865234375,0.0011983871227130294,0.0026630824431777,-0.0012649642303586006
1730559813866897700,8.349897705078124,0.000665770610794425,0.0031956990715116262,-0.0012649642303586006
1730559813876928300,8.35992822265625,0.000665770610794425,0.0015978495357558131,-0.00019973119196947664
1730559813886957600,8.36995751953125,0.0001331541279796511,0.0031956990715116262,-0.002862813649699092
1730559813896989200,8.3799892578125,0.0011983871227130294,0.0021304660476744175,-0.002862813649699092
1730559813907018800,8.390018798828125,0.000665770610794425,0.0026630824431777,-0.001797580742277205
1730559813917038600,8.40003857421875,0.0011983871227130294,0.0047935484908521175,-0.001797580742277205
1730559813927067100,8.410067138671875,0.0011983871227130294,0.004260932095348835,-0.001797580742277205
1730559813937112600,8.420112548828126,0.0011983871227130294,0.0021304660476744175,-0.002862813649699092
1730559813947143000,8.430142822265625,0.0011983871227130294,0.0037283156998455524,-0.002862813649699092
1730559813957157400,8.440157470703125,0.0027962366584688425,0.0026630824431777,-0.0012649642303586006
1730559813967186200,8.450186279296876,0.0011983871227130294,0.0021304660476744175,-0.003395430278033018
1730559813977203700,8.46020361328125,0.000665770610794425,0.0021304660476744175,-0.003928046673536301
1730559813987231200,8.470231201171876,0.0001331541279796511,0.004260932095348835,-0.001797580742277205
1730559813997271000,8.48027099609375,0.000665770610794425,0.004260932095348835,-0.00019973119196947664
1730559814007299800,8.4902998046875,0.0001331541279796511,0.0015978495357558131,-0.0007323477184399962
1730559814017329400,8.500329345703125,0.000665770610794425,0.0026630824431777,-0.0012649642303586006
1730559814027358200,8.510358154296876,0.0011983871227130294,0.0021304660476744175,-0.0012649642303586006
1730559814037383000,8.5203828125,0.000665770610794425,0.0010652330238372087,-0.00019973119196947664
1730559814047411500,8.530411376953126,0.0001331541279796511,0.0037283156998455524,-0.001797580742277205
1730559814057420000,8.540419921875,0.0011983871227130294,0.004260932095348835,-0.003395430278033018
1730559814067446500,8.550446533203125,0.0017310036346316338,0.0010652330238372087,-0.003395430278033018
1730559814077488000,8.560488037109375,0.0011983871227130294,0.0021304660476744175,-0.0023301972541958094
1730559814087516200,8.57051611328125,0.0001331541279796511,0.0031956990715116262,-0.0012649642303586006
1730559814097559000,8.58055908203125,0.0011983871227130294,0.0037283156998455524,-0.0012649642303586006
1730559814107588600,8.590588623046875,0.0017310036346316338,0.0031956990715116262,-0.001797580742277205
1730559814117609000,8.60060888671875,0.000665770610794425,0.0037283156998455524,-0.0012649642303586006
1730559814127637500,8.610637451171876,0.000665770610794425,0.0026630824431777,-0.0012649642303586006
1730559814137668900,8.6206689453125,0.0011983871227130294,0.0031956990715116262,-0.001797580742277205
1730559814147697700,8.63069775390625,0.00226362026296556,0.0031956990715116262,-0.0023301972541958094
1730559814157724700,8.640724609375,0.00226362026296556,0.0031956990715116262,-0.002862813649699092
1730559814167753200,8.650753173828125,0.00226362026296556,0.0037283156998455524,-0.0023301972541958094
1730559814177778000,8.66077783203125,0.0017310036346316338,0.0021304660476744175,-0.002862813649699092
1730559814187806200,8.67080615234375,0.0011983871227130294,0.0005326165119186044,-0.0007323477184399962
1730559814197837600,8.680837646484376,0.0011983871227130294,0.0031956990715116262,-0.0007323477184399962
1730559814207866400,8.690866455078124,0.0011983871227130294,0.0021304660476744175,-0.00019973119196947664
1730559814217900300,8.700900390625,0.00226362026296556,0.0015978495357558131,-0.001797580742277205
1730559814227929300,8.710929443359374,-0.0014646954368799925,0.0015978495357558131,-0.0023301972541958094
1730559814237955300,8.720955322265626,0.0001331541279796511,0.0010652330238372087,-0.001797580742277205
1730559814247984000,8.730984130859374,0.0017310036346316338,0.0026630824431777,-0.0023301972541958094
1730559814258012700,8.7410126953125,0.000665770610794425,0.0037283156998455524,-0.001797580742277205
1730559814268041200,8.751041259765625,0.0017310036346316338,0.0031956990715116262,-0.0023301972541958094
1730559814278065400,8.7610654296875,0.0011983871227130294,0.0010652330238372087,-0.0012649642303586006
1730559814288093700,8.77109375,0.000665770610794425,0.0026630824431777,-0.0012649642303586006
1730559814298124800,8.781124755859375,-0.0003994623839389533,0.004260932095348835,-0.0023301972541958094
1730559814308153300,8.7911533203125,0.000665770610794425,0.0026630824431777,-0.0007323477184399962
1730559814318172200,8.801172119140626,0.000665770610794425,0,-0.0007323477184399962
1730559814328199700,8.81119970703125,0.000665770610794425,0.0021304660476744175,-0.0023301972541958094
1730559814338227200,8.821227294921876,0.0001331541279796511,0.0026630824431777,-0.001797580742277205
1730559814348255000,8.8312548828125,0.000665770610794425,0.0021304660476744175,-0.001797580742277205
1730559814358288600,8.84128857421875,0.0001331541279796511,0.0015978495357558131,-0.004460663069039583
1730559814368316700,8.851316650390626,0.000665770610794425,0.0037283156998455524,-0.0023301972541958094
1730559814378339000,8.861339111328125,0.0011983871227130294,0.0015978495357558131,-0.00019973119196947664
1730559814388366600,8.87136669921875,0.000665770610794425,0.0026630824431777,-0.0012649642303586006
1730559814398373600,8.88137353515625,0.0011983871227130294,0.0031956990715116262,-0.001797580742277205
1730559814408399000,8.891399169921876,0.000665770610794425,0.0037283156998455524,-0.0023301972541958094
1730559814418453800,8.901453857421876,0.000665770610794425,0.0026630824431777,-0.0012649642303586006
1730559814428482300,8.911482421875,0.0011983871227130294,0.0026630824431777,0.0003328853053972125
1730559814438513000,8.921512939453125,0.0017310036346316338,0.0021304660476744175,0.0008655018173158169
1730559814448541700,8.931541748046875,0.0017310036346316338,0.0021304660476744175,-0.0023301972541958094
1730559814458576400,8.941576416015625,0.0011983871227130294,0.004260932095348835,-0.001797580742277205
1730559814468605700,8.951605712890625,-0.0003994623839389533,0.0026630824431777,0.0003328853053972125
1730559814478630000,8.9616298828125,0.000665770610794425,0.0026630824431777,-0.00019973119196947664
1730559814488658700,8.97165869140625,0.0017310036346316338,0.004260932095348835,-0.001797580742277205
1730559814498692400,8.9816923828125,0.0011983871227130294,0.0037283156998455524,-0.001797580742277205
1730559814508721700,8.9917216796875,0.000665770610794425,0.0031956990715116262,-0.0012649642303586006
1730559814518741500,9.001741455078125,0.0027962366584688425,0.0026630824431777,-0.004460663069039583
1730559814528780000,9.011780029296874,0.0017310036346316338,0.0037283156998455524,-0.0023301972541958094
1730559814538808300,9.021808349609374,0.0017310036346316338,0.0021304660476744175,-0.0007323477184399962
1730559814548838100,9.031838134765625,0.0017310036346316338,0.0015978495357558131,-0.001797580742277205
1730559814558866400,9.041866455078125,0.0027962366584688425,0.0015978495357558131,-0.0023301972541958094
1730559814568894700,9.051894775390625,-0.0009320789249613881,0.0015978495357558131,-0.001797580742277205
1730559814578923000,9.061923095703126,-0.0003994623839389533,0.0015978495357558131,0.0013981183292344213
1730559814588954400,9.071954345703125,0.0017310036346316338,0.0021304660476744175,-0.0007323477184399962
1730559814598983000,9.08198291015625,0.000665770610794425,0.0015978495357558131,-0.0012649642303586006
1730559814609027000,9.092027099609375,0.0001331541279796511,0.0015978495357558131,-0.00019973119196947664
1730559814619057200,9.10205712890625,-0.0003994623839389533,0.0026630824431777,-0.0007323477184399962
1730559814629062100,9.112062255859374,-0.0003994623839389533,0.0037283156998455524,-0.0007323477184399962
1730559814639090000,9.12208984375,0.000665770610794425,0.0031956990715116262,-0.0023301972541958094
1730559814649114000,9.132114013671876,0.0017310036346316338,0.0037283156998455524,-0.001797580742277205
1730559814659141400,9.142141357421876,0.0011983871227130294,0.0031956990715116262,-0.0012649642303586006
1730559814669175300,9.15217529296875,-0.0003994623839389533,0.0037283156998455524,-0.0023301972541958094
1730559814679203300,9.162203369140625,-0.0003994623839389533,0.0026630824431777,-0.0023301972541958094
1730559814689238300,9.17223828125,0.000665770610794425,0.0026630824431777,-0.0012649642303586006
1730559814699267000,9.18226708984375,0.0017310036346316338,0.0031956990715116262,-0.001797580742277205
1730559814709291800,9.192291748046875,0.0011983871227130294,0.0031956990715116262,-0.0012649642303586006
1730559814719320000,9.202320068359375,0.0011983871227130294,0.0037283156998455524,-0.0012649642303586006
1730559814729347600,9.21234765625,0.000665770610794425,0.0037283156998455524,-0.00019973119196947664
1730559814739375600,9.222375732421876,0.0001331541279796511,0.0021304660476744175,-0.002862813649699092
1730559814749382100,9.232382080078125,0.0001331541279796511,0.0037283156998455524,-0.003395430278033018
1730559814759408400,9.242408447265625,0.0001331541279796511,0.0015978495357558131,-0.0023301972541958094
1730559814769460200,9.252460205078124,0.000665770610794425,0.0026630824431777,-0.001797580742277205
1730559814779489000,9.262489013671875,0.0011983871227130294,0.0021304660476744175,-0.0012649642303586006
1730559814789524500,9.2725244140625,0.0001331541279796511,0.0031956990715116262,-0.0012649642303586006
1730559814799553800,9.2825537109375,0.0011983871227130294,0.0053261648863554,-0.0023301972541958094
1730559814809583000,9.2925830078125,0.0011983871227130294,0.0026630824431777,-0.0012649642303586006
1730559814819612400,9.3026123046875,0.0017310036346316338,0.0031956990715116262,-0.0023301972541958094
1730559814829636000,9.312635986328125,0.0017310036346316338,0.0031956990715116262,-0.0012649642303586006
1730559814839665000,9.322664794921875,0.0017310036346316338,0.0047935484908521175,0.0003328853053972125
1730559814849693200,9.332693115234376,0.000665770610794425,0.0026630824431777,-0.001797580742277205
1730559814859722000,9.342721923828124,-0.0003994623839389533,0.0031956990715116262,-0.0012649642303586006
1730559814869745200,9.3527451171875,0.0001331541279796511,0.0047935484908521175,-0.001797580742277205
1730559814879773200,9.362773193359375,-0.0003994623839389533,0.0021304660476744175,-0.0012649642303586006
1730559814889803500,9.372803466796874,0.00226362026296556,0.0015978495357558131,-0.0023301972541958094
1730559814899831800,9.382831787109374,0.00226362026296556,0.0026630824431777,-0.0023301972541958094
1730559814909859800,9.39285986328125,0.0001331541279796511,0.0026630824431777,-0.00019973119196947664
1730559814919888100,9.40288818359375,0.0011983871227130294,0.0026630824431777,-0.00019973119196947664
1730559814929894700,9.412894775390624,0.0017310036346316338,0.0031956990715116262,-0.0012649642303586006
1730559814939920600,9.422920654296876,-0.0003994623839389533,0.0037283156998455524,-0.0012649642303586006
1730559814949974800,9.432974853515624,0.0011983871227130294,0.0037283156998455524,-0.0007323477184399962
1730559814960003600,9.443003662109374,-0.0003994623839389533,0.0026630824431777,-0.0012649642303586006
1730559814970032000,9.4530322265625,0.000665770610794425,0.0026630824431777,-0.0023301972541958094
1730559814980061000,9.46306103515625,0.0017310036346316338,0.0026630824431777,-0.003395430278033018
1730559814990093600,9.473093505859374,0.00226362026296556,0.0021304660476744175,-0.003395430278033018
1730559815000123000,9.483122802734375,0.0027962366584688425,0.0026630824431777,-0.0012649642303586006
1730559815010126600,9.493126708984375,0.00226362026296556,0.0031956990715116262,-0.00019973119196947664
1730559815020153300,9.5031533203125,0.0011983871227130294,0.0026630824431777,-0.001797580742277205
1730559815030206200,9.513206298828125,0.000665770610794425,0.0026630824431777,-0.0012649642303586006
1730559815040235500,9.523235595703126,0.000665770610794425,0.0015978495357558131,-0.0012649642303586006
1730559815050261800,9.53326171875,0.0017310036346316338,0.0010652330238372087,-0.0012649642303586006
1730559815060290800,9.543290771484376,0.0011983871227130294,0.0021304660476744175,-0.0023301972541958094
1730559815070316500,9.553316650390625,0.0001331541279796511,0.0010652330238372087,-0.00019973119196947664
1730559815080345300,9.563345458984376,0.000665770610794425,0.0026630824431777,-0.0007323477184399962
1730559815090378000,9.5733779296875,0.000665770610794425,0.0031956990715116262,-0.0023301972541958094
1730559815100407000,9.583406982421875,0.000665770610794425,0.0031956990715116262,-0.0012649642303586006
1730559815110430700,9.5934306640625,0.0001331541279796511,0.0037283156998455524,-0.001797580742277205
1730559815120459300,9.603459228515625,0.0011983871227130294,0.0021304660476744175,-0.0023301972541958094
1730559815130488800,9.61348876953125,0.0017310036346316338,0.0010652330238372087,-0.0012649642303586006
1730559815140517400,9.623517333984376,0.000665770610794425,0.0031956990715116262,-0.0023301972541958094
1730559815150550800,9.63355078125,0.0001331541279796511,0.004260932095348835,-0.002862813649699092
1730559815160580000,9.643580078125,0.0011983871227130294,0.0026630824431777,-0.0012649642303586006
1730559815170611700,9.65361181640625,0.0001331541279796511,0.0031956990715116262,-0.001797580742277205
1730559815180641000,9.66364111328125,0.0017310036346316338,0.0037283156998455524,-0.002862813649699092
1730559815190649900,9.67364990234375,0.000665770610794425,0.0037283156998455524,-0.0023301972541958094
1730559815200677000,9.683677001953125,0.000665770610794425,0.0037283156998455524,-0.0007323477184399962
1730559815210714400,9.69371435546875,0.000665770610794425,0.0021304660476744175,0.0008655018173158169
1730559815220742700,9.70374267578125,-0.0003994623839389533,0,-0.00019973119196947664
1730559815230779100,9.713779052734376,-0.0003994623839389533,0.0015978495357558131,-0.0007323477184399962
1730559815240808200,9.72380810546875,0.000665770610794425,0.0031956990715116262,-0.0007323477184399962
1730559815250803200,9.73380322265625,0.000665770610794425,0.0015978495357558131,-0.0012649642303586006
1730559815260829000,9.743828857421875,0.0011983871227130294,0.0026630824431777,-0.0012649642303586006
1730559815270893300,9.753893310546875,0.0011983871227130294,0.0026630824431777,-0.00019973119196947664
1730559815280923000,9.7639228515625,0.0011983871227130294,0.0021304660476744175,-0.0012649642303586006
1730559815290949600,9.77394970703125,0.000665770610794425,0.0026630824431777,-0.0007323477184399962
1730559815300978700,9.783978759765626,0.00226362026296556,0.0015978495357558131,-0.002862813649699092
1730559815311004000,9.79400390625,0.0011983871227130294,0.0026630824431777,-0.0012649642303586006
1730559815321032700,9.80403271484375,0.0011983871227130294,0.0026630824431777,0.0003328853053972125
1730559815331069000,9.81406884765625,0.0017310036346316338,0.0021304660476744175,-0.0007323477184399962
1730559815341098500,9.824098388671874,0.0017310036346316338,0.0021304660476744175,-0.001797580742277205
1730559815351120600,9.83412060546875,0.0011983871227130294,0.0031956990715116262,-0.0012649642303586006
1730559815361149400,9.8441494140625,0.0011983871227130294,0.0031956990715116262,-0.003395430278033018
1730559815371173400,9.85417333984375,0.0017310036346316338,0.0031956990715116262,-0.004460663069039583
1730559815381197600,9.864197509765624,0.0017310036346316338,0.0026630824431777,-0.0023301972541958094
1730559815391226000,9.87422607421875,0.0017310036346316338,0.0037283156998455524,-0.0012649642303586006
1730559815401243400,9.884243408203124,0.0011983871227130294,0.0026630824431777,-0.0012649642303586006
1730559815411271000,9.89427099609375,-0.0003994623839389533,0.0021304660476744175,-0.001797580742277205
1730559815421308700,9.90430859375,0.0017310036346316338,0.0031956990715116262,-0.0007323477184399962
1730559815431337200,9.914337158203125,0.0011983871227130294,0.0026630824431777,-0.0012649642303586006
1730559815441369600,9.92436962890625,-0.0003994623839389533,0.0021304660476744175,-0.0023301972541958094
1730559815451398700,9.934398681640625,0.0017310036346316338,0.0021304660476744175,-0.001797580742277205
1730559815461431000,9.94443115234375,0.0001331541279796511,0.0021304660476744175,-0.0023301972541958094
1730559815471460400,9.95446044921875,0.000665770610794425,0.0005326165119186044,-0.0007323477184399962
1730559815481484300,9.964484375,0.0017310036346316338,0.0021304660476744175,-0.0012649642303586006
1730559815491513000,9.97451318359375,0.0001331541279796511,0.0031956990715116262,-0.0012649642303586006
1730559815501535200,9.98453515625,0.0017310036346316338,0.004260932095348835,-0.001797580742277205
1730559815511563300,9.994563232421875,0.0027962366584688425,0.0037283156998455524,-0.0023301972541958094
1730559815521597700,10.00459765625,-0.0009320789249613881,0.0026630824431777,-0.0023301972541958094
1730559815531626500,10.01462646484375,-0.0009320789249613881,0.0026630824431777,-0.001797580742277205
1730559815541621500,10.02462158203125,0.0001331541279796511,0.0021304660476744175,-0.001797580742277205
1730559815551646700,10.034646728515625,0.0017310036346316338,0.0031956990715116262,-0.001797580742277205
1730559815561704000,10.044703857421876,0.0001331541279796511,0.0031956990715116262,-0.001797580742277205
1730559815571732500,10.054732421875,0.0001331541279796511,0.0021304660476744175,-0.002862813649699092
1730559815581760500,10.064760498046875,0.000665770610794425,0.0026630824431777,-0.0023301972541958094
1730559815591789000,10.0747890625,0.0011983871227130294,0.0015978495357558131,-0.0023301972541958094
1730559815601826600,10.08482666015625,0.0017310036346316338,0.0031956990715116262,-0.0023301972541958094
1730559815611856100,10.094856201171876,0.000665770610794425,0.0031956990715116262,-0.00019973119196947664
1730559815621893600,10.1048935546875,-0.0003994623839389533,0.0037283156998455524,-0.0012649642303586006
1730559815631923700,10.114923828125,-0.0003994623839389533,0.0021304660476744175,-0.002862813649699092
1730559815641944000,10.124944091796875,0.000665770610794425,0.0015978495357558131,-0.001797580742277205
1730559815651973000,10.13497314453125,0.0011983871227130294,0.0026630824431777,-0.0012649642303586006
1730559815661995500,10.14499560546875,0.0017310036346316338,0.0026630824431777,-0.001797580742277205
1730559815672024000,10.155024169921875,0.0001331541279796511,0.0026630824431777,-0.0012649642303586006
1730559815682044200,10.165044189453125,0.0001331541279796511,0.0031956990715116262,-0.002862813649699092
1730559815692072000,10.175072021484375,-0.0003994623839389533,0.0021304660476744175,-0.00019973119196947664
1730559815702115800,10.18511572265625,0.0011983871227130294,0.0026630824431777,-0.0007323477184399962
1730559815712145200,10.195145263671876,0.0011983871227130294,0.0010652330238372087,-0.0023301972541958094
1730559815722158000,10.205157958984374,0.0011983871227130294,0.0005326165119186044,-0.0007323477184399962
1730559815732185900,10.215185791015625,0.0017310036346316338,0.0031956990715116262,-0.001797580742277205
1730559815742234600,10.225234619140625,0.00226362026296556,0.0037283156998455524,-0.002862813649699092
1730559815752264400,10.235264404296874,0.0011983871227130294,0.0026630824431777,-0.0023301972541958094
1730559815762295800,10.2452958984375,0.0001331541279796511,0.0021304660476744175,-0.001797580742277205
1730559815772325600,10.25532568359375,0.0011983871227130294,0.0053261648863554,0.0003328853053972125
1730559815782331100,10.2653310546875,0.0001331541279796511,0.0026630824431777,0.002463351469486952
1730559815792358700,10.275358642578125,0.0017310036346316338,0.0031956990715116262,-0.00019973119196947664
1730559815802377000,10.285376953125,0.0001331541279796511,0.0026630824431777,-0.001797580742277205
1730559815812403700,10.29540380859375,0.0017310036346316338,0.0021304660476744175,-0.002862813649699092
1730559815822457600,10.30545751953125,0.0033288532868027687,0.0026630824431777,-0.003395430278033018
1730559815832487200,10.315487060546875,0.00226362026296556,0.0037283156998455524,-0.0012649642303586006
1730559815842514700,10.3255146484375,-0.0009320789249613881,0.0031956990715116262,-0.0007323477184399962
1730559815852543700,10.335543701171876,-0.0003994623839389533,0.0031956990715116262,-0.0023301972541958094
1730559815862542800,10.34554296875,0.000665770610794425,0.0005326165119186044,-0.003395430278033018
1730559815872569000,10.355569091796875,0.0017310036346316338,0.0021304660476744175,-0.0023301972541958094
1730559815882617900,10.365617919921876,0.0027962366584688425,0.0037283156998455524,-0.0012649642303586006
1730559815892646400,10.375646484375,0.0001331541279796511,0.0015978495357558131,-0.001797580742277205
1730559815902675700,10.38567578125,0.0011983871227130294,0.0026630824431777,-0.0012649642303586006
1730559815912704000,10.3957041015625,0.0027962366584688425,0.0031956990715116262,-0.001797580742277205
1730559815922735600,10.405735595703124,0.000665770610794425,0.0021304660476744175,-0.0023301972541958094
1730559815932764700,10.4157646484375,0.0001331541279796511,0.0010652330238372087,-0.002862813649699092
1730559815942800600,10.425800537109374,0.0011983871227130294,0.0015978495357558131,-0.001797580742277205
1730559815952830200,10.435830322265625,0.0033288532868027687,0.0026630824431777,-0.001797580742277205
1730559815962850000,10.44585009765625,-0.0003994623839389533,0.0010652330238372087,0.0003328853053972125
1730559815972878600,10.455878662109376,0.000665770610794425,0.0021304660476744175,-0.0007323477184399962
1730559815982896000,10.465896240234375,0.00226362026296556,0.004260932095348835,-0.00019973119196947664
1730559815992923600,10.475923583984375,0.0011983871227130294,0.0037283156998455524,-0.001797580742277205
1730559816002966300,10.48596630859375,-0.0009320789249613881,0.0031956990715116262,-0.001797580742277205
1730559816012995300,10.495995361328125,0.000665770610794425,0.0037283156998455524,-0.0007323477184399962
1730559816023026400,10.5060263671875,0.0017310036346316338,0.0031956990715116262,-0.0007323477184399962
1730559816033055500,10.516055419921875,0.0001331541279796511,0.0037283156998455524,-0.0023301972541958094
1730559816043091000,10.526091064453125,0.0001331541279796511,0.0026630824431777,-0.001797580742277205
1730559816053120800,10.536120849609375,0.000665770610794425,0.0021304660476744175,-0.001797580742277205
1730559816063130600,10.546130615234375,0.0001331541279796511,0.0005326165119186044,-0.0012649642303586006
1730559816073158700,10.55615869140625,0.0001331541279796511,0.0015978495357558131,-0.0007323477184399962
1730559816083200800,10.56620068359375,0.000665770610794425,0.0031956990715116262,-0.0023301972541958094
1730559816093230000,10.57622998046875,0.0017310036346316338,0.0047935484908521175,-0.001797580742277205
1730559816103249000,10.586248779296875,0.0001331541279796511,0.0021304660476744175,-0.0012649642303586006
1730559816113277200,10.596277099609376,-0.0003994623839389533,0.0037283156998455524,-0.0012649642303586006
1730559816123314000,10.60631396484375,0.0017310036346316338,0.0037283156998455524,-0.0023301972541958094
1730559816133343000,10.616343017578124,0.0017310036346316338,0.0037283156998455524,-0.002862813649699092
1730559816143367400,10.626367431640626,0.000665770610794425,0.004260932095348835,-0.001797580742277205
1730559816153396200,10.636396240234374,0.0001331541279796511,0.0021304660476744175,-0.0007323477184399962
1730559816163430400,10.646430419921876,-0.0003994623839389533,0.0031956990715116262,-0.0023301972541958094
1730559816173459500,10.65645947265625,-0.0003994623839389533,0.0037283156998455524,-0.001797580742277205
1730559816183467800,10.6664677734375,-0.0003994623839389533,0.0021304660476744175,-0.0012649642303586006
1730559816193494800,10.676494873046876,0.0011983871227130294,0.0021304660476744175,-0.0012649642303586006
1730559816203573800,10.68657373046875,0.0011983871227130294,0.0026630824431777,-0.0007323477184399962
1730559816213606100,10.696606201171875,0.0001331541279796511,0.0021304660476744175,-0.0012649642303586006
1730559816223594000,10.706593994140626,0.00226362026296556,0.0026630824431777,-0.0023301972541958094
1730559816233621800,10.716621826171876,0.0011983871227130294,0.0005326165119186044,0.0003328853053972125
1730559816243657000,10.726656982421876,0.0017310036346316338,0.0026630824431777,-0.0012649642303586006
1730559816253685500,10.736685546875,0.0017310036346316338,0.0026630824431777,-0.0007323477184399962
1730559816263708700,10.746708740234375,0.000665770610794425,0.004260932095348835,-0.0023301972541958094
1730559816273736700,10.75673681640625,0.000665770610794425,0.0037283156998455524,-0.001797580742277205
1730559816283754000,10.76675390625,0.00226362026296556,0.0021304660476744175,-0.0012649642303586006
1730559816293781000,10.776781005859375,0.000665770610794425,0.0026630824431777,-0.002862813649699092
1730559816303792000,10.786792236328125,0.0011983871227130294,0.0031956990715116262,-0.002862813649699092
1730559816313817300,10.7968173828125,0.00226362026296556,0.0026630824431777,-0.0023301972541958094
1730559816323857000,10.80685693359375,0.0011983871227130294,0.004260932095348835,-0.0007323477184399962
1730559816333883600,10.816883544921875,0.0011983871227130294,0.0031956990715116262,-0.0012649642303586006
1730559816343939600,10.826939697265624,0.000665770610794425,0.0026630824431777,-0.002862813649699092
1730559816353969400,10.836969482421875,-0.0009320789249613881,0.0031956990715116262,-0.0012649642303586006
1730559816363992600,10.84699267578125,-0.0003994623839389533,0.0031956990715116262,-0.0012649642303586006
1730559816374021600,10.857021728515624,0.0027962366584688425,0.0026630824431777,-0.0023301972541958094
1730559816384034300,10.867034423828125,0.0017310036346316338,0.0021304660476744175,-0.0023301972541958094
1730559816394061600,10.8770615234375,0.00226362026296556,0.0026630824431777,-0.0023301972541958094
1730559816404086500,10.88708642578125,0.0011983871227130294,0.0015978495357558131,-0.0007323477184399962
1730559816414113800,10.89711376953125,0.0017310036346316338,0.0015978495357558131,-0.002862813649699092
1730559816424161300,10.907161376953125,0.000665770610794425,0.004260932095348835,-0.0007323477184399962
1730559816434190600,10.917190673828125,0.0001331541279796511,0.004260932095348835,-0.001797580742277205
1730559816444232400,10.927232421875,0.0001331541279796511,0.0026630824431777,-0.00019973119196947664
1730559816454262800,10.9372626953125,0.000665770610794425,0.0026630824431777,-0.001797580742277205
1730559816464267300,10.947267333984374,0.0011983871227130294,0.0031956990715116262,-0.0023301972541958094
1730559816474295300,10.95729541015625,0.0011983871227130294,0.0026630824431777,-0.0007323477184399962
1730559816484324000,10.967323974609375,0.000665770610794425,0.0010652330238372087,-0.0007323477184399962
1730559816494352100,10.97735205078125,0.000665770610794425,0.0021304660476744175,-0.0023301972541958094
1730559816504367000,10.9873671875,0.0011983871227130294,0.0031956990715116262,-0.0023301972541958094
1730559816514393600,10.9973935546875,0.0001331541279796511,0.0021304660476744175,-0.0007323477184399962
1730559816524450000,11.007449951171875,0.0001331541279796511,0.0031956990715116262,-0.0007323477184399962
1730559816534480000,11.01747998046875,0.000665770610794425,0.004260932095348835,-0.0007323477184399962
1730559816544511200,11.02751123046875,0.000665770610794425,0.0026630824431777,-0.0007323477184399962
1730559816554541000,11.037541015625,0.0001331541279796511,0.0021304660476744175,-0.002862813649699092
1730559816564567000,11.047567138671875,-0.0003994623839389533,0.0015978495357558131,-0.0023301972541958094
1730559816574596600,11.0575966796875,0.0011983871227130294,0.0015978495357558131,-0.00019973119196947664
1730559816584627200,11.067627197265624,0.00226362026296556,0.0026630824431777,-0.001797580742277205
1730559816594656800,11.07765673828125,0.0011983871227130294,0.0031956990715116262,-0.0023301972541958094
1730559816604635600,11.0876357421875,-0.0003994623839389533,0.0037283156998455524,-0.0007323477184399962
1730559816614660000,11.09766015625,0.000665770610794425,0.004260932095348835,-0.001797580742277205
1730559816624732700,11.107732666015625,0.0011983871227130294,0.0037283156998455524,-0.0012649642303586006
1730559816634762000,11.117761962890626,-0.0003994623839389533,0.0037283156998455524,0.0008655018173158169
1730559816644773600,11.127773681640624,0.000665770610794425,0.0031956990715116262,-0.0007323477184399962
1730559816654801200,11.13780126953125,0.000665770610794425,0.0031956990715116262,-0.0012649642303586006
1730559816664844000,11.147843994140626,0.0011983871227130294,0.0021304660476744175,-0.003395430278033018
1730559816674873000,11.157873046875,0.0011983871227130294,0.0037283156998455524,-0.001797580742277205
1730559816684899300,11.1678994140625,0.0017310036346316338,0.0021304660476744175,-0.0023301972541958094
1730559816694928100,11.17792822265625,0.0011983871227130294,0.0015978495357558131,-0.002862813649699092
1730559816704952600,11.18795263671875,0.000665770610794425,0.0021304660476744175,-0.0023301972541958094
1730559816714980900,11.19798095703125,0.0001331541279796511,0.0010652330238372087,-0.0023301972541958094
1730559816725002200,11.208002197265625,0.000665770610794425,0.0021304660476744175,-0.001797580742277205
1730559816735030000,11.218030029296875,0.0011983871227130294,0.0010652330238372087,-0.001797580742277205
1730559816745069600,11.228069580078126,-0.0003994623839389533,0.0026630824431777,-0.001797580742277205
1730559816755098400,11.238098388671874,0.000665770610794425,0.0037283156998455524,-0.0012649642303586006
1730559816765095000,11.248094970703125,0.0011983871227130294,0.0021304660476744175,-0.0007323477184399962
1730559816775120400,11.258120361328125,-0.0003994623839389533,0.0021304660476744175,0.0008655018173158169
1730559816785177300,11.26817724609375,0.0001331541279796511,0.0015978495357558131,-0.001797580742277205
1730559816795206000,11.278205810546876,0.000665770610794425,0.0026630824431777,-0.0007323477184399962
1730559816805253000,11.288253173828124,0.0001331541279796511,0.0015978495357558131,-0.00019973119196947664
1730559816815283700,11.29828369140625,-0.0009320789249613881,0.0021304660476744175,-0.0012649642303586006
1730559816825293800,11.3082939453125,0.0017310036346316338,0.0031956990715116262,-0.0007323477184399962
1730559816835322400,11.318322265625,0.0027962366584688425,0.0037283156998455524,-0.001797580742277205
1730559816845347800,11.328347900390625,0.0033288532868027687,0.0031956990715116262,-0.001797580742277205
1730559816855376000,11.3383759765625,0.0027962366584688425,0.0031956990715116262,-0.0012649642303586006
1730559816865404200,11.348404052734375,0.0001331541279796511,0.0021304660476744175,-0.00019973119196947664
1730559816875432400,11.358432373046876,0.000665770610794425,0.004260932095348835,-0.001797580742277205
1730559816885464600,11.368464599609375,0.0027962366584688425,0.0037283156998455524,-0.002862813649699092
1730559816895493400,11.378493408203125,0.0001331541279796511,0.0047935484908521175,-0.00019973119196947664
1730559816905530400,11.3885302734375,0.000665770610794425,0.0010652330238372087,-0.0012649642303586006
1730559816915560000,11.398559814453124,0.0011983871227130294,0.0010652330238372087,-0.00019973119196947664
1730559816925583400,11.408583251953125,0.000665770610794425,0.0031956990715116262,-0.0007323477184399962
1730559816935612400,11.4186123046875,0.0011983871227130294,0.0026630824431777,-0.00019973119196947664
1730559816945641000,11.428640869140626,0.000665770610794425,0.0026630824431777,-0.0012649642303586006
1730559816955669800,11.438669677734374,0.000665770610794425,0.004260932095348835,-0.002862813649699092
1730559816965708500,11.44870849609375,0.000665770610794425,0.0026630824431777,-0.0012649642303586006
1730559816975738400,11.45873828125,0.000665770610794425,0.0015978495357558131,-0.0007323477184399962
1730559816985762600,11.468762451171875,0.0011983871227130294,0.0026630824431777,-0.002862813649699092
1730559816995791600,11.47879150390625,0.000665770610794425,0.0021304660476744175,-0.0023301972541958094
1730559817005821000,11.488821044921876,0.000665770610794425,0.0037283156998455524,-0.0007323477184399962
1730559817015850200,11.498850341796874,0.000665770610794425,0.0015978495357558131,-0.001797580742277205
1730559817025851600,11.5088515625,0.00226362026296556,0.0037283156998455524,-0.0023301972541958094
1730559817035878100,11.518878173828124,0.0017310036346316338,0.0037283156998455524,-0.001797580742277205
1730559817045915100,11.5289150390625,0.0017310036346316338,0.0026630824431777,-0.0012649642303586006
1730559817055942700,11.538942626953125,0.0017310036346316338,0.0026630824431777,-0.0012649642303586006
1730559817065974500,11.548974609375,0.0011983871227130294,0.0015978495357558131,-0.0012649642303586006
1730559817076002600,11.55900244140625,0.0001331541279796511,0.0021304660476744175,-0.003928046673536301
1730559817086044700,11.569044677734375,-0.0003994623839389533,0.0021304660476744175,-0.0007323477184399962
1730559817096074000,11.579073974609376,0.000665770610794425,0.0021304660476744175,0.0003328853053972125
1730559817106104300,11.589104248046874,0.0001331541279796511,0.0031956990715116262,-0.001797580742277205
1730559817116134000,11.5991337890625,-0.0014646954368799925,0.0026630824431777,-0.002862813649699092
1730559817126158800,11.609158935546875,0.0001331541279796511,0.0026630824431777,-0.0007323477184399962
1730559817136188000,11.61918798828125,0.0011983871227130294,0.0010652330238372087,-0.0012649642303586006
1730559817146204700,11.62920458984375,0.000665770610794425,0.0015978495357558131,-0.002862813649699092
1730559817156232400,11.639232421875,0.000665770610794425,0.0026630824431777,-0.0012649642303586006
1730559817166271200,11.649271240234375,0.000665770610794425,0.0026630824431777,-0.003395430278033018
1730559817176300000,11.659300048828126,0.0001331541279796511,0.0031956990715116262,-0.002862813649699092
1730559817186332400,11.66933251953125,0.000665770610794425,0.0021304660476744175,-0.0023301972541958094
1730559817196361500,11.679361572265625,0.0017310036346316338,0.0021304660476744175,-0.0023301972541958094
1730559817206391800,11.689391845703126,0.0001331541279796511,0.0015978495357558131,-0.0012649642303586006
1730559817216421000,11.699421142578124,0.0011983871227130294,0.0015978495357558131,-0.00019973119196947664
1730559817226444000,11.709444091796875,0.0017310036346316338,0.0021304660476744175,-0.0023301972541958094
1730559817236472600,11.71947265625,0.00226362026296556,0.0031956990715116262,-0.003395430278033018
1730559817246491000,11.729490966796876,0.0011983871227130294,0.0005326165119186044,-0.0023301972541958094
1730559817256518700,11.7395185546875,0.0027962366584688425,0.0010652330238372087,-0.0023301972541958094
1730559817266568200,11.749568115234375,0.0001331541279796511,0.0015978495357558131,-0.0023301972541958094
1730559817276598000,11.759597900390625,-0.0003994623839389533,0.0026630824431777,-0.0023301972541958094
1730559817286591700,11.769591796875,0.0001331541279796511,0.0021304660476744175,-0.0007323477184399962
1730559817296618000,11.779617919921876,0.000665770610794425,0.0015978495357558131,-0.0007323477184399962
1730559817306648300,11.7896484375,0.0001331541279796511,0.0015978495357558131,-0.001797580742277205
1730559817316674800,11.7996748046875,-0.0009320789249613881,0.0021304660476744175,-0.001797580742277205
1730559817326729500,11.8097294921875,0.0017310036346316338,0.0021304660476744175,-0.001797580742277205
1730559817336759000,11.819759033203125,0.0017310036346316338,0.0026630824431777,-0.0023301972541958094
1730559817346780000,11.82977978515625,0.000665770610794425,0.0015978495357558131,-0.0012649642303586006
1730559817356808400,11.839808349609376,0.000665770610794425,0.0005326165119186044,0.0003328853053972125
1730559817366848000,11.849847900390625,0.0011983871227130294,0.0010652330238372087,-0.001797580742277205
1730559817376877800,11.8598779296875,0.000665770610794425,0.0021304660476744175,-0.0023301972541958094
1730559817386901200,11.8699013671875,-0.0003994623839389533,0.0021304660476744175,0.0003328853053972125
1730559817396930300,11.879930419921875,-0.0003994623839389533,0.0015978495357558131,-0.0007323477184399962
1730559817406957600,11.88995751953125,0.0001331541279796511,0.0015978495357558131,-0.001797580742277205
1730559817416986400,11.899986328125,0.0001331541279796511,0.0026630824431777,-0.002862813649699092
1730559817427012400,11.910012451171875,0.0017310036346316338,0.0015978495357558131,-0.001797580742277205
1730559817437041200,11.920041259765625,0.0011983871227130294,0.0031956990715116262,-0.001797580742277205
