time,seconds_elapsed,AccZ,AccY,AccX
1730553665305732900,0.14373291015625,0,0,0
1730553665315759900,0.153759765625,0.00119781494140625,0.011988915503025055,0.003600180149078369
1730553665325811700,0.163811767578125,0.007184028625488281,0.020748693495988846,0.01529093086719513
1730553665335838700,0.173838623046875,-0.016173362731933594,0.02268524095416069,-0.002855271100997925
1730553665345871600,0.18387158203125,0.0004787445068359375,0.027830813080072403,-0.011940106749534607
1730553665355900400,0.193900390625,-0.011574745178222656,0.029111376032233238,0.003815397620201111
1730553665365928000,0.203927978515625,-0.022240638732910156,0.01662265881896019,-0.0008698701858520508
1730553665375956200,0.213956298828125,-0.008983612060546875,-0.004301879554986954,-0.011091873049736023
1730553665386007800,0.2240078125,-0.012242317199707031,-0.006067022681236267,-0.009939372539520264
1730553665396045600,0.234045654296875,0.017012596130371094,-0.024842210114002228,-0.011230945587158203
1730553665406030000,0.244030029296875,0.006754875183105469,0.007920678704977036,-0.0014878064393997192
1730553665416046300,0.25404638671875,0.006191253662109375,-0.023460719734430313,0.005284518003463745
1730553665426105600,0.264105712890625,0.01677227020263672,-0.023798517882823944,0.00041922926902770996
1730553665436139300,0.27413916015625,0.0022268295288085938,-0.024302907288074493,0.004850491881370544
1730553665446152000,0.28415185546875,-0.00016021728515625,-0.002543710172176361,0.013628944754600525
1730553665456177200,0.29417724609375,-0.002399444580078125,0.011159565299749374,0.02192075550556183
1730553665466206000,0.3042060546875,-0.009022712707519531,0.037479475140571594,0.00030305981636047363
1730553665476232700,0.314232666015625,0.0118408203125,0.033058203756809235,0.00024978816509246826
1730553665486242800,0.324242919921875,0.011217117309570312,0.015455111861228943,-0.01104743778705597
1730553665496263000,0.334262939453125,-0.01892566680908203,0.014751702547073364,-0.015134021639823914
1730553665506318300,0.344318359375,-0.013460159301757812,0.00930485874414444,-0.01683308184146881
1730553665516352800,0.354352783203125,0.014590263366699219,-0.02778376266360283,-0.004571840167045593
1730553665526381300,0.36438134765625,0.009368896484375,-0.02431292086839676,-0.008791640400886536
1730553665536413400,0.374413330078125,-0.0025033950805664062,-0.023230981081724167,-0.0013746917247772217
1730553665546432800,0.384432861328125,-0.009302139282226562,-0.0062337033450603485,0.007841363549232483
1730553665556459500,0.39445947265625,-0.0043392181396484375,-0.00832941010594368,0.005299225449562073
1730553665566489000,0.404489013671875,-0.0041790008544921875,-0.005590770393610001,0.0005532950162887573
1730553665576517000,0.41451708984375,-0.0017213821411132812,0.008593246340751648,0.016818180680274963
1730553665586562800,0.424562744140625,0.021463394165039062,0.006205063313245773,0.00252552330493927
1730553665596597800,0.43459765625,-0.0024080276489257812,0.008332479745149612,-0.018387213349342346
1730553665606620400,0.444620361328125,-0.0069675445556640625,-0.0012403503060340881,-0.013144999742507935
1730553665616650200,0.454650146484375,0.011813163757324219,-0.007993046194314957,-0.012620240449905396
1730553665626662100,0.464662109375,0.013776779174804688,0.0017134547233581543,-0.021414920687675476
1730553665636684800,0.474684814453125,-0.009878158569335938,-0.007464110851287842,-0.006822153925895691
1730553665646730000,0.48472998046875,-0.018899917602539062,-0.007283322513103485,0.0048155635595321655
1730553665656755000,0.4947548828125,0.011899948120117188,0.004532512277364731,0.007023423910140991
1730553665666763000,0.504762939453125,0.009245872497558594,-0.021314136683940887,0.004565626382827759
1730553665676786400,0.514786376953125,0.015999794006347656,-0.01845209300518036,0.004458174109458923
1730553665686837200,0.524837158203125,-0.0007505416870117188,0.0029495656490325928,0.016079694032669067
1730553665696863500,0.534863525390625,-0.0030679702758789062,-0.004108749330043793,-0.000606924295425415
1730553665706892300,0.544892333984375,-0.007666587829589844,0.02187327668070793,0.006431803107261658
1730553665716918800,0.554918701171875,0.0042057037353515625,0.011968381702899933,0.0016661584377288818
1730553665726954000,0.5649541015625,-0.007590293884277344,-0.006852783262729645,-0.0029876679182052612
1730553665736981200,0.574981201171875,-0.005074501037597656,0.00528654083609581,-0.009929880499839783
1730553665746984200,0.584984130859375,0.004405021667480469,-0.01578640192747116,-0.00022411346435546875
1730553665757009200,0.595009033203125,0.0019636154174804688,-0.0202118381857872,-0.014215230941772461
1730553665767067600,0.605067626953125,0.013645172119140625,-0.003352336585521698,-0.006867080926895142
1730553665777096000,0.615095947265625,0.00632476806640625,-0.003312841057777405,0.009656697511672974
1730553665787120000,0.6251201171875,-0.010233879089355469,-0.0008247122168540955,0.0025878548622131348
1730553665797148000,0.63514794921875,-0.021768569946289062,0.006409328430891037,0.007347196340560913
1730553665807180000,0.645179931640625,-0.009599685668945312,0.004010312259197235,0.00017133355140686035
1730553665817208000,0.6552080078125,-0.0000152587890625,0.008606337010860443,0.009477004408836365
1730553665827214600,0.665214599609375,0.01878643035888672,0.013011172413825989,0.0116615891456604
1730553665837240800,0.67524072265625,-0.009777069091796875,0.0033833906054496765,0.004455968737602234
1730553665847287300,0.685287353515625,0.0021610260009765625,0.005692761391401291,-0.0003682374954223633
1730553665857315600,0.695315673828125,-0.00022983551025390625,-0.008610881865024567,-0.012164846062660217
1730553665867338800,0.7053388671875,-0.00022792816162109375,0.012795552611351013,-0.014188066124916077
1730553665877366500,0.715366455078125,-0.011991500854492188,-0.010944604873657227,0.002394258975982666
1730553665887396600,0.725396728515625,-0.011783599853515625,-0.0036249011754989624,0.002158820629119873
1730553665897424600,0.735424560546875,0.004902839660644531,0.005880270153284073,0.009151279926300049
1730553665907451100,0.745451171875,-0.011669158935546875,0.005752976983785629,0.013723388314247131
1730553665917479000,0.75547900390625,-0.0020513534545898438,0.0008108019828796387,-0.005440622568130493
1730553665927519500,0.76551953125,0.009761810302734375,-0.011004030704498291,-0.005386576056480408
1730553665937548500,0.775548583984375,-0.016309738159179688,-0.020222827792167664,-0.0006763637065887451
1730553665947564500,0.785564453125,0.0028057098388671875,-0.00803731381893158,-0.005363777279853821
1730553665957592000,0.795592041015625,0.0004062652587890625,0.003894619643688202,0.0040572285652160645
1730553665967622700,0.80562255859375,0.005108833312988281,0.006210092455148697,0.011122271418571472
1730553665977650700,0.815650634765625,-0.004397392272949219,0.013196952641010284,-0.00323447585105896
1730553665987669200,0.825669189453125,0.005096435546875,0.015302140265703201,0.003899291157722473
1730553665997696300,0.8356962890625,-0.0020551681518554688,-0.004034936428070068,0.01086243987083435
1730553666007712500,0.84571240234375,-0.006733894348144531,0.005377199500799179,-0.010452628135681152
1730553666017738500,0.855738525390625,0.016933441162109375,-0.006518401205539703,-0.014975741505622864
1730553666027779800,0.86577978515625,-0.0021924972534179688,-0.008797027170658112,-0.01947629451751709
1730553666037807400,0.875807373046875,0.00255584716796875,-0.013547271490097046,-0.007464170455932617
1730553666047842800,0.8858427734375,0.021355628967285156,-0.0016282349824905396,-0.009631067514419556
1730553666057871000,0.89587109375,-0.004913330078125,0.007740147411823273,0.000016987323760986328
1730553666067902500,0.90590234375,0.006945610046386719,0.019304431974887848,0.00709591805934906
1730553666077931300,0.91593115234375,-0.0002384185791015625,0.011727884411811829,-0.0071433186531066895
1730553666087955200,0.925955078125,-0.004944801330566406,0.006791986525058746,0.000004202127456665039
1730553666097983500,0.9359833984375,0.004558563232421875,0.006596565246582031,0.009439587593078613
1730553666108014000,0.94601416015625,-0.00022983551025390625,0.008967015892267227,0.00468781590461731
1730553666118042600,0.956042724609375,0.0115509033203125,-0.02173304557800293,-0.007103621959686279
1730553666128053200,0.96605322265625,-0.00041866302490234375,-0.016638435423374176,-0.021157190203666687
1730553666138079700,0.976079833984375,0.009013175964355469,-0.011525213718414307,-0.013828188180923462
1730553666148123400,0.986123291015625,0.008862495422363281,-0.023036666214466095,-0.0018063485622406006
1730553666158151700,0.996151611328125,-0.0054187774658203125,0.012544579803943634,-0.006526678800582886
1730553666168173800,1.006173828125,-0.010041236877441406,0.03575735539197922,0.0030175596475601196
1730553666178201600,1.01620166015625,0.011326789855957031,0.009321946650743484,0.017113521695137024
1730553666188237800,1.02623779296875,0.011137008666992188,-0.0025381967425346375,0.007470965385437012
1730553666198266400,1.036266357421875,-0.0031785964965820312,-0.007339857518672943,0.0024935156106948853
1730553666208297500,1.04629736328125,-0.0054779052734375,-0.011957988142967224,0.009325072169303894
1730553666218326300,1.056326171875,0.004032135009765625,-0.009592384099960327,0.013944730162620544
1730553666228340200,1.06634033203125,0.01574420928955078,-0.000042982399463653564,-0.009882643818855286
1730553666238367500,1.076367431640625,0.006058692932128906,-0.002377726137638092,-0.002638384699821472
1730553666248403000,1.08640283203125,-0.008181571960449219,-0.0142006054520607,-0.000019162893295288086
1730553666258431000,1.096430908203125,-0.00333404541015625,-0.006826505064964294,0.0070603638887405396
1730553666268433200,1.10643310546875,-0.0009202957153320312,-0.006589427590370178,0.006852239370346069
1730553666278458600,1.116458740234375,0.0014505386352539062,0.012229874730110168,0.0019362270832061768
1730553666288511500,1.126511474609375,0.0037813186645507812,0.026127774268388748,-0.0004387795925140381
1730553666298539800,1.136539794921875,-0.012769699096679688,0.00937984511256218,0.011359572410583496
1730553666308578800,1.146578857421875,-0.005490303039550781,0.006988160312175751,0.0041671693325042725
1730553666318608100,1.156608154296875,-0.0077533721923828125,-0.0001761019229888916,-0.010075002908706665
1730553666328612400,1.1666123046875,-0.009980201721191406,-0.014285385608673096,-0.00047166645526885986
1730553666338639000,1.17663916015625,-0.005105018615722656,-0.023347169160842896,-0.009718388319015503
1730553666348682500,1.1866826171875,0.006756782531738281,-0.00409330427646637,0.0022861361503601074
1730553666358711000,1.1967109375,0.0066394805908203125,0.0005474016070365906,0.007126256823539734
1730553666368741400,1.206741455078125,-0.007603645324707031,-0.011272422969341278,-0.007165238261222839
1730553666378770000,1.21677001953125,-0.0027647018432617188,0.0007193014025688171,-0.0023719221353530884
1730553666388791300,1.226791259765625,-0.0074329376220703125,0.007694222033023834,-0.004570707678794861
1730553666398819300,1.2368193359375,-0.0073089599609375,0.0029278695583343506,-0.004481390118598938
1730553666408859000,1.24685888671875,-0.004830360412597656,0.005305420607328415,-0.002090439200401306
1730553666418888000,1.256887939453125,-0.0023965835571289062,0.00523710623383522,-0.00900597870349884
1730553666428902100,1.266902099609375,0.0070648193359375,0.02637242153286934,0.0005798786878585815
1730553666438930000,1.276929931640625,0.009304046630859375,0.004702236503362656,0.007598325610160828
1730553666448943900,1.28694384765625,0.004436492919921875,-0.0002234131097793579,0.007484152913093567
1730553666458970000,1.29697021484375,0.011425971984863281,-0.019043006002902985,0.012238964438438416
1730553666469023000,1.30702294921875,0.0018148422241210938,-0.01639707386493683,0.0025231093168258667
1730553666479052000,1.317052001953125,-0.012347221374511719,0.002640925347805023,-0.01174210011959076
1730553666489054500,1.327054443359375,0.0043487548828125,-0.013921335339546204,0.002548888325691223
1730553666499080700,1.337080810546875,0.008989334106445312,0.016900356858968735,-0.002295762300491333
1730553666509142300,1.347142333984375,0.008839607238769531,-0.0023084133863449097,0.007126063108444214
1730553666519172000,1.357172119140625,-0.003086090087890625,0.002566024661064148,0.004716634750366211
1730553666529150000,1.36714990234375,-0.0006761550903320312,0.009714152663946152,-0.0001630336046218872
1730553666539174700,1.377174560546875,0.006403923034667969,-0.006866097450256348,0.016237720847129822
1730553666549241300,1.387241455078125,-0.010189056396484375,0.005099531263113022,0.008809655904769897
1730553666559270400,1.3972705078125,-0.0005979537963867188,-0.0019273757934570312,0.004068359732627869
1730553666569299000,1.407298828125,0.015898704528808594,-0.009045392274856567,0.0017095506191253662
1730553666579327700,1.41732763671875,-0.000858306884765625,-0.011230111122131348,-0.002913758158683777
1730553666589349400,1.427349365234375,-0.0008449554443359375,-0.008614368736743927,-0.009867072105407715
1730553666599377700,1.437377685546875,0.0038805007934570312,-0.006041005253791809,0.0020369887351989746
1730553666609404400,1.447404296875,0.0038204193115234375,0.008369654417037964,-0.005205795168876648
1730553666619432200,1.45743212890625,0.024959564208984375,0.019923463463783264,-0.005261823534965515
1730553666629461500,1.46746142578125,0.0057010650634765625,0.010138627141714096,-0.00290893018245697
1730553666639489800,1.47748974609375,-0.017948150634765625,0.014752667397260666,0.011234074831008911
1730553666649513700,1.487513671875,0.0011968612670898438,0.005208056420087814,-0.0007699579000473022
1730553666659541500,1.49754150390625,0.008245468139648438,-0.0088873952627182,0.006270989775657654
1730553666669578200,1.507578125,0.005751609802246094,-0.008769772946834564,0.0014684945344924927
1730553666679606800,1.517606689453125,-0.0037689208984375,0.0030720308423042297,-0.0031504780054092407
1730553666689630500,1.52763037109375,-0.008417129516601562,-0.011092528700828552,0.0016259998083114624
1730553666699658500,1.537658447265625,0.0034999847412109375,0.008059397339820862,0.008729830384254456
1730553666709653200,1.5476533203125,0.0010862350463867188,-0.008489981293678284,0.00624220073223114
1730553666719678000,1.557677978515625,-0.008350372314453125,0.0010457038879394531,-0.010544002056121826
1730553666729730800,1.567730712890625,0.0012102127075195312,0.008169412612915039,-0.003236144781112671
1730553666739758600,1.577758544921875,0.003543853759765625,0.015224773436784744,-0.007776707410812378
1730553666749814300,1.587814208984375,0.01761913299560547,0.019756607711315155,-0.0029224157333374023
1730553666759844900,1.597844970703125,-0.01800823211669922,-0.004104778170585632,-0.0005043148994445801
1730553666769846800,1.6078466796875,-0.024774551391601562,-0.003859095275402069,0.004228696227073669
1730553666779874600,1.61787451171875,0.0015478134155273438,-0.006127893924713135,0.0018678754568099976
1730553666789906200,1.62790625,0.008586883544921875,-0.013018250465393066,0.009020492434501648
1730553666799934200,1.637934326171875,-0.008046150207519531,-0.008067674934864044,0.0065798163414001465
1730553666809961200,1.647961181640625,0.0015077590942382812,-0.0033019334077835083,0.004180163145065308
1730553666819989000,1.657989013671875,-0.0032281875610351562,-0.0031738653779029846,0.001768067479133606
1730553666830010000,1.668010009765625,0.0015354156494140625,0.0014504119753837585,0.006461188197135925
1730553666840037000,1.678037109375,0.0015087127685546875,0.010712217539548874,0.0016548335552215576
1730553666850083800,1.688083740234375,-0.0008726119995117188,-0.003684505820274353,-0.003071397542953491
1730553666860113200,1.698113037109375,0.013273239135742188,-0.0012979954481124878,0.0017558634281158447
1730553666870143000,1.70814306640625,-0.015216827392578125,0.0034090131521224976,0.015874549746513367
1730553666880172300,1.71817236328125,0.0038814544677734375,-0.0014411881566047668,-0.0032732337713241577
1730553666890192600,1.728192626953125,-0.015028953552246094,0.0034175068140029907,-0.014932036399841309
1730553666900221000,1.738220947265625,-0.012423515319824219,-0.0013269633054733276,0.011293724179267883
1730553666910261200,1.74826123046875,0.023116111755371094,0.0103377066552639,-0.007726296782493591
1730553666920290800,1.758290771484375,-0.005536079406738281,0.012434042990207672,-0.005281880497932434
1730553666930307300,1.768307373046875,-0.0030851364135742188,-0.006546005606651306,0.004137858748435974
1730553666940335600,1.778335693359375,0.004033088684082031,0.002958446741104126,-0.0006798654794692993
1730553666950365400,1.788365478515625,0.018095016479492188,-0.004237473011016846,-0.0075661540031433105
1730553666960393700,1.798393798828125,-0.008121490478515625,-0.018334291875362396,0.006809070706367493
1730553666970391600,1.8083916015625,-0.0009202957153320312,0.0005744174122810364,-0.002766534686088562
1730553666980416800,1.818416748046875,0.0014476776123046875,0.0004838109016418457,0.004411518573760986
1730553666990472200,1.82847216796875,0.003780364990234375,-0.004159808158874512,-0.0004111975431442261
1730553667000500500,1.83850048828125,-0.008057594299316406,0.007812194526195526,0.013638749718666077
1730553667010535400,1.848535400390625,-0.022057533264160156,0.0005824193358421326,0.0016460716724395752
1730553667020564200,1.858564208984375,0.001861572265625,0.007610142230987549,0.0017873942852020264
1730553667030584600,1.86858447265625,0.01596546173095703,0.0006458759307861328,0.004126638174057007
1730553667040612600,1.878612548828125,0.003922462463378906,-0.013373538851737976,0.004019245505332947
1730553667050642700,1.888642578125,-0.014988899230957031,0.00335732102394104,-0.0030502378940582275
1730553667060671000,1.8986708984375,0.008816719055175781,-0.003741726279258728,-0.0076967328786849976
1730553667070700800,1.90870068359375,-0.012531280517578125,0.0009483769536018372,-0.002844497561454773
1730553667080729000,1.91872900390625,-0.007610321044921875,-0.020091049373149872,0.011349514126777649
1730553667090725600,1.9287255859375,-0.0074825286865234375,-0.005603872239589691,0.006410032510757446
1730553667100750800,1.938750732421875,-0.0026454925537109375,-0.0055421143770217896,0.003908693790435791
1730553667110815200,1.948815185546875,-0.0190887451171875,-0.026680506765842438,-0.0033138692378997803
1730553667120844300,1.95884423828125,-0.0022821426391601562,-0.00030086934566497803,0.0015181005001068115
1730553667130870300,1.968870361328125,0.011891365051269531,0.016214441508054733,0.015535905957221985
1730553667140899000,1.978899169921875,-0.009504318237304688,0.018217552453279495,0.008068129420280457
1730553667150924500,1.988924560546875,-0.004633903503417969,0.0012392252683639526,0.012554481625556946
1730553667160953000,1.998953125,0.00015544891357421875,-0.0011157169938087463,0.005239903926849365
1730553667170975000,2.00897509765625,0.016640663146972656,0.0060954950749874115,0.007573336362838745
1730553667181002800,2.019002685546875,-0.00012302398681640625,0.003714911639690399,0.0026466399431228638
1730553667191033600,2.02903369140625,0.004588127136230469,0.0036719143390655518,-0.0043999552726745605
1730553667201062000,2.039061767578125,0.009221076965332031,-0.015162035822868347,-0.006565883755683899
1730553667211097300,2.049097412109375,0.02084636688232422,-0.007822498679161072,0.0005712956190109253
1730553667221126100,2.059126220703125,0.004012107849121094,0.006566133350133896,-0.008899152278900146
1730553667231115000,2.069114990234375,-0.0054759979248046875,-0.000638030469417572,-0.006433025002479553
1730553667241140000,2.079139892578125,0.0016803741455078125,-0.0054207444190979,0.0031096339225769043
1730553667251197000,2.089197021484375,0.004008293151855469,0.004112064838409424,0.007781803607940674
1730553667261225000,2.099224853515625,-0.007831573486328125,-0.0005945786833763123,0.002747088670730591
1730553667271256000,2.109256103515625,-0.012409210205078125,0.004201896488666534,0.002611592411994934
1730553667281284400,2.119284423828125,0.011351585388183594,0.004103757441043854,0.007344797253608704
1730553667291307300,2.129307373046875,0.004092216491699219,0.027611199766397476,-0.004439234733581543
1730553667301335000,2.1393349609375,0.0016679763793945312,-0.00826483964920044,-0.004403859376907349
1730553667311356400,2.1493564453125,0.013421058654785156,-0.010359145700931549,-0.011487826704978943
1730553667321383400,2.159383544921875,0.0037746429443359375,0.008679389953613281,0.0028502345085144043
1730553667331410400,2.169410400390625,-0.00571441650390625,-0.014944441616535187,-0.01110956072807312
1730553667341437400,2.1794375,0.0038061141967773438,-0.0004900619387626648,-0.004000112414360046
1730553667351464400,2.18946435546875,-0.0033245086669921875,-0.0005641132593154907,0.003146424889564514
1730553667361491500,2.199491455078125,-0.00091552734375,0.004127144813537598,0.003159239888191223
1730553667371516700,2.2095166015625,0.0038080215454101562,-0.007650040090084076,-0.0014889687299728394
1730553667381543400,2.21954345703125,0.015522956848144531,0.001972787082195282,-0.010873302817344666
1730553667391575300,2.2295751953125,-0.0012254714965820312,-0.01677866280078888,0.0011510848999023438
1730553667401602800,2.239602783203125,-0.008272171020507812,0.006976861506700516,0.012871846556663513
1730553667411625000,2.249625,0.0036420822143554688,-0.011956855654716492,0.000946044921875
1730553667421652000,2.25965185546875,0.0059337615966796875,0.0023983344435691833,0.0034545958042144775
1730553667431688400,2.2696884765625,0.005831718444824219,-0.007040269672870636,0.00115889310836792
1730553667441716500,2.279716552734375,-0.0036869049072265625,-0.009205467998981476,0.005863860249519348
1730553667451739000,2.28973876953125,0.0010833740234375,0.02164696902036667,-0.0035385340452194214
1730553667461766400,2.299766357421875,-0.017778396606445312,0.002622835338115692,-0.003413274884223938
1730553667471865600,2.309865478515625,0.0013628005981445312,-0.002005167305469513,0.0013683736324310303
1730553667481900000,2.319900146484375,-0.0010166168212890625,0.00030625611543655396,0.00612303614616394
1730553667491867000,2.329866943359375,-0.012778282165527344,-0.004386499524116516,-0.0010319799184799194
1730553667501894700,2.339894775390625,-0.010207176208496094,-0.006443031132221222,-0.008120805025100708
1730553667511914800,2.349914794921875,-0.017101287841796875,-0.00642133504152298,-0.01043236255645752
1730553667521941800,2.359941650390625,-0.0073947906494140625,-0.0017912238836288452,0.006191223859786987
1730553667531963600,2.369963623046875,-0.011982917785644531,-0.004043951630592346,0.0037456005811691284
1730553667541990100,2.379990234375,-0.0047168731689453125,0.0007053092122077942,-0.0010144859552383423
1730553667552024300,2.3900244140625,0.004782676696777344,0.007626224309206009,0.0013711601495742798
1730553667562051600,2.400051513671875,0.007061004638671875,-0.006665974855422974,-0.01052027940750122
1730553667572091000,2.4100908203125,-0.00954437255859375,-0.0018754079937934875,0.001393929123878479
1730553667582119400,2.420119384765625,-0.0023183822631835938,-0.006377585232257843,-0.0032752156257629395
1730553667592147700,2.430147705078125,0.009495735168457031,0.003121703863143921,-0.010222107172012329
1730553667602176300,2.44017626953125,0.006979942321777344,-0.0017236992716789246,0.001791045069694519
1730553667612205800,2.450205810546875,-0.01904773712158203,0.0029386505484580994,0.018264755606651306
1730553667622234400,2.460234375,0.0001125335693359375,0.0006083101034164429,-0.007833987474441528
1730553667632260900,2.4702607421875,-0.004603385925292969,-0.008804038166999817,0.00890187919139862
1730553667642289200,2.4802890625,-0.0045299530029296875,-0.006435699760913849,0.00881841778755188
1730553667652317000,2.49031689453125,0.00025272369384765625,-0.0041068196296691895,0.004128694534301758
1730553667662345200,2.50034521484375,-0.0021085739135742188,-0.006373845040798187,0.0017688572406768799
1730553667672360000,2.51035986328125,-0.0020742416381835938,0.007887091487646103,-0.0029069632291793823
1730553667682387000,2.520386962890625,0.009737014770507812,0.0007101893424987793,-0.002793624997138977
1730553667692429800,2.530429931640625,-0.0022039413452148438,-0.006243407726287842,-0.0026820749044418335
1730553667702458400,2.540458251953125,-0.011593818664550781,0.005660980939865112,0.009309247136116028
1730553667712486400,2.550486328125,0.00037384033203125,-0.017863169312477112,0.011730179190635681
1730553667722514700,2.5605146484375,-0.00905609130859375,-0.01058446615934372,0.018613487482070923
1730553667732546600,2.570546630859375,0.0028715133666992188,-0.01986318826675415,0.0018266737461090088
1730553667742575400,2.580575439453125,-0.0018863677978515625,-0.0006121471524238586,-0.007612243294715881
1730553667752592400,2.59059228515625,0.0028553009033203125,0.013551589101552963,-0.0004058629274368286
1730553667762620000,2.600619873046875,0.007519721984863281,-0.003351345658302307,0.008932143449783325
1730553667772651000,2.610651123046875,0.007393836975097656,0.0060939788818359375,-0.007693305611610413
1730553667782679000,2.620678955078125,0.004916191101074219,0.006118364632129669,-0.007551595568656921
1730553667792707600,2.63070751953125,0.014258384704589844,0.024728190153837204,0.013684436678886414
1730553667802735600,2.640735595703125,0.021085739135742188,-0.0040318965911865234,0.006403133273124695
1730553667812761300,2.65076123046875,0.0066013336181640625,0.010087721049785614,0.0015470236539840698
1730553667822789000,2.6607890625,0.006491661071777344,0.00742768868803978,-0.0008736401796340942
1730553667832820700,2.67082080078125,0.008737564086914062,-0.007067129015922546,-0.014979377388954163
1730553667842848800,2.680848876953125,-0.0008287429809570312,-0.014153577387332916,-0.012465551495552063
1730553667852876800,2.690876708984375,-0.010236740112304688,-0.00913114845752716,-0.012295708060264587
1730553667862904800,2.70090478515625,-0.02184295654296875,0.005124017596244812,-0.0003515183925628662
1730553667872929800,2.7109296875,-0.0073451995849609375,0.019193347543478012,0.013800933957099915
1730553667882957600,2.72095751953125,0.0021982192993164062,0.018948841840028763,0.0042142122983932495
1730553667892989700,2.73098974609375,0.0021648406982421875,-0.004853188991546631,-0.003014177083969116
1730553667903018000,2.74101806640625,-0.007294654846191406,0.004826538264751434,-0.0004917234182357788
1730553667913041400,2.75104150390625,-0.014243125915527344,-0.014126621186733246,-0.0003662407398223877
1730553667923069200,2.761069091796875,-0.0022287368774414062,0.00015770643949508667,-0.005007073283195496
1730553667933099500,2.771099609375,-0.009259223937988281,-0.004591234028339386,-0.009623005986213684
1730553667943127600,2.78112744140625,-0.009104728698730469,-0.004649847745895386,-0.011857137084007263
1730553667953160000,2.791159912109375,0.00047397613525390625,-0.01873745769262314,-0.0024314820766448975
1730553667963188500,2.8011884765625,-0.004242897033691406,-0.013639815151691437,0.0022301822900772095
1730553667973206300,2.811206298828125,0.012315750122070312,0.0006917044520378113,-0.004860237240791321
1730553667983233500,2.821233642578125,0.005043983459472656,0.02425486221909523,0.0069593340158462524
1730553667993268000,2.83126806640625,-0.00446319580078125,0.026275746524333954,0.004551678895950317
1730553668003296300,2.841296142578125,0.007388114929199219,0.014134146273136139,-0.004881232976913452
1730553668013332500,2.85133251953125,0.0049114227294921875,-0.00026535987854003906,-0.00017917156219482422
1730553668023361500,2.861361572265625,0.0001163482666015625,-0.0002949237823486328,-0.0024161338806152344
1730553668033379000,2.871379150390625,0.007178306579589844,-0.005035102367401123,-0.007023230195045471
1730553668043406800,2.88140673828125,-0.011784553527832031,-0.021262504160404205,-0.00223328173160553
1730553668053436400,2.8914365234375,-0.011586189270019531,-0.01622745394706726,0.004780307412147522
1730553668063464400,2.90146435546875,-0.02316761016845703,0.009925030171871185,0.00455889105796814
1730553668073492700,2.91149267578125,-0.006291389465332031,0.007525298744440079,-0.004927292466163635
1730553668083520800,2.921520751953125,-0.0061855316162109375,0.014592550694942474,-0.004831671714782715
1730553668093551900,2.9315517578125,0.0033407211303710938,0.011705655604600906,-0.002537354826927185
1730553668103580200,2.941580078125,0.007996559143066406,-0.00034952908754348755,0.004533052444458008
1730553668113603800,2.951603759765625,-0.03689002990722656,0.00663849338889122,0.0043665021657943726
1730553668123631600,2.961631591796875,-0.024499893188476562,0.003985419869422913,-0.00511576235294342
1730553668133655600,2.971655517578125,-0.007603645324707031,0.006396938115358353,-0.009677469730377197
1730553668143683000,2.98168310546875,0.01843547821044922,-0.002955496311187744,0.0022748559713363647
1730553668153722400,2.991722412109375,0.008706092834472656,0.011408615857362747,0.011673778295516968
1730553668163751200,3.001751220703125,0.013274192810058594,0.0064768604934215546,0.013744443655014038
1730553668173756200,3.011756103515625,0.005988121032714844,0.004191786050796509,0.004055246710777283
1730553668183782400,3.021782470703125,0.0035333633422851562,0.008957818150520325,-0.0007103532552719116
1730553668193801700,3.0318017578125,0.0058307647705078125,0.013486877083778381,0.015751272439956665
1730553668203827500,3.041827392578125,0.005734443664550781,-0.007916800677776337,-0.001038864254951477
1730553668213869800,3.051869873046875,0.0032873153686523438,-0.005410321056842804,-0.017653539776802063
1730553668223897000,3.06189697265625,0.012658119201660156,0.011292453855276108,-0.0009609758853912354
1730553668233940500,3.0719404296875,0.007737159729003906,0.0018104389309883118,-0.003338158130645752
1730553668243969300,3.08196923828125,-0.015946388244628906,-0.007570177316665649,0.0013896822929382324
1730553668253998600,3.09199853515625,-0.01332855224609375,-0.009986497461795807,0.006142228841781616
1730553668264027600,3.102027587890625,0.010447502136230469,0.00894232839345932,0.0037491917610168457
1730553668274037200,3.112037353515625,0.0032091140747070312,0.011010449379682541,0.00589907169342041
1730553668284064300,3.122064208984375,0.012576103210449219,-0.0007226914167404175,0.001257970929145813
1730553668294105900,3.13210595703125,-0.008831024169921875,-0.007601790130138397,-0.005920544266700745
1730553668304134400,3.142134521484375,0.031360626220703125,-0.005098231136798859,0.003665328025817871
1730553668314168000,3.15216796875,0.011990547180175781,0.0067317672073841095,0.0037202537059783936
1730553668324197000,3.162197021484375,0.007080078125,-0.01932811737060547,-0.0010932385921478271
1730553668334222000,3.17222216796875,-0.014238357543945312,-0.00013893097639083862,0.001294061541557312
1730553668344250600,3.182250732421875,-0.0022220611572265625,0.0022437721490859985,-0.0034244805574417114
1730553668354273800,3.192273681640625,0.004881858825683594,0.016413990408182144,-0.0010500699281692505
1730553668364302000,3.202302001953125,0.000087738037109375,-0.0051419660449028015,0.0013879090547561646
1730553668374302500,3.212302490234375,0.007149696350097656,0.0019812434911727905,-0.003229692578315735
1730553668384328000,3.222327880859375,0.004673957824707031,0.016048859804868698,-0.007874563336372375
1730553668394390300,3.232390380859375,-0.00011444091796875,0.013600587844848633,-0.0006121546030044556
1730553668404419000,3.242419189453125,0.004597663879394531,0.006173204630613327,-0.0006405562162399292
1730553668414447900,3.25244775390625,0.016298294067382812,0.0012745857238769531,0.006449311971664429
1730553668424477000,3.262476806640625,0.006603240966796875,0.0036278516054153442,-0.00772741436958313
1730553668434498000,3.272498046875,-0.0005769729614257812,0.010708268731832504,-0.0074300020933151245
1730553668444526300,3.2825263671875,-0.007633209228515625,0.0012334585189819336,-0.0025815367698669434
1730553668454528000,3.292528076171875,0.004273414611816406,-0.008293747901916504,0.0044374167919158936
1730553668464553500,3.302553466796875,0.004199981689453125,0.0012374892830848694,-0.00028248131275177
1730553668474607400,3.312607421875,-0.00293731689453125,-0.005773097276687622,0.004499480128288269
1730553668484635600,3.3226357421875,-0.0005350112915039062,0.005964662879705429,0.009199857711791992
1730553668494659800,3.332659912109375,0.006537437438964844,0.005780722945928574,-0.004970982670783997
1730553668504687900,3.34268798828125,-0.005352020263671875,0.0009439289569854736,-0.00948229432106018
1730553668514718500,3.352718505859375,0.023004531860351562,-0.010726027190685272,-0.014022588729858398
1730553668524746800,3.362746826171875,-0.0009336471557617188,-0.010475389659404755,0.002712950110435486
1730553668534783700,3.37278369140625,0.0179290771484375,0.0013959482312202454,0.002525836229324341
1730553668544812800,3.382812744140625,0.012919425964355469,-0.015250340104103088,-0.01174008846282959
1730553668554833700,3.392833740234375,0.00563812255859375,0.0015141293406486511,0.002550452947616577
1730553668564861700,3.40286181640625,0.007899284362792969,-0.0009500831365585327,-0.009257137775421143
1730553668574885000,3.412885009765625,-0.004010200500488281,0.003848746418952942,-0.006734475493431091
1730553668584913000,3.422912841796875,-0.006302833557128906,-0.0010605305433273315,-0.004149988293647766
1730553668594928400,3.432928466796875,0.0008678436279296875,0.0036907270550727844,0.0006954818964004517
1730553668604955000,3.442954833984375,0.005564689636230469,0.008363984525203705,0.005408883094787598
1730553668614980400,3.45298046875,-0.025147438049316406,-0.008089080452919006,-0.00183868408203125
1730553668625006800,3.4630068359375,-0.0011692047119140625,-0.007832996547222137,-0.0018994063138961792
1730553668635047400,3.47304736328125,-0.0011501312255859375,0.01822901889681816,-0.006566077470779419
1730553668645075500,3.483075439453125,-0.012908935546875,0.010831516236066818,-0.004138648509979248
1730553668655098600,3.4930986328125,0.010863304138183594,-0.01272594928741455,0.003010883927345276
1730553668665126100,3.503126220703125,-0.0010976791381835938,-0.012390226125717163,0.0007214248180389404
1730553668675155000,3.513155029296875,-0.0010786056518554688,0.001913413405418396,0.007735803723335266
1730553668685182500,3.523182373046875,-0.010485649108886719,0.011118095368146896,-0.01122458279132843
1730553668695215000,3.533215087890625,0.0014629364013671875,0.006194669753313065,0.01268775761127472
1730553668705243100,3.5432431640625,-0.015048027038574219,0.008629396557807922,0.0006097406148910522
1730553668715305200,3.55330517578125,0.0016965866088867188,-0.007930167019367218,-0.0066616833209991455
1730553668725336600,3.563336669921875,-0.007754325866699219,-0.005476407706737518,-0.008894115686416626
1730553668735322600,3.573322509765625,0.006503105163574219,0.0016008689999580383,0.0008444637060165405
1730553668745349400,3.583349365234375,-0.005381584167480469,0.0015437155961990356,0.010214075446128845
1730553668755381000,3.593381103515625,0.0064849853515625,-0.010291531682014465,0.0006343424320220947
1730553668765408300,3.603408203125,0.0063762664794921875,0.0063903070986270905,0.0030442476272583008
1730553668775436500,3.6134365234375,0.0015583038330078125,0.0040001049637794495,-0.006415992975234985
1730553668785464000,3.623464111328125,-0.012598991394042969,0.01096968725323677,0.012445181608200073
1730553668795485200,3.633485107421875,0.0017461776733398438,0.006099317222833633,0.0050814151763916016
1730553668805512000,3.643511962890625,-0.007700920104980469,-0.005758926272392273,-0.0022121071815490723
1730553668815544300,3.65354443359375,-0.002857208251953125,-0.005591049790382385,0.00003781914710998535
1730553668825571800,3.66357177734375,0.008968353271484375,0.013420931994915009,-0.007016047835350037
1730553668835602000,3.673601806640625,0.01823902130126953,0.005996521562337875,-0.011545345187187195
1730553668845629700,3.683629638671875,0.0037984848022460938,-0.0036067739129066467,-0.006576552987098694
1730553668855671300,3.69367138671875,0.008449554443359375,0.00594644621014595,0.0005086064338684082
1730553668865700400,3.703700439453125,-0.0011138916015625,-0.0058057233691215515,0.0029206275939941406
1730553668875726000,3.71372607421875,-0.0034542083740234375,0.010803673416376114,0.0006336867809295654
1730553668885755000,3.7237548828125,0.008381843566894531,-0.0012882500886917114,0.012310624122619629
1730553668895755000,3.733755126953125,-0.003536224365234375,0.00817791372537613,0.005103781819343567
1730553668905781000,3.743781005859375,-0.008188247680664062,0.00340116024017334,0.0026756227016448975
1730553668915833900,3.753833740234375,-0.008050918579101562,0.005720209330320358,0.0025919824838638306
1730553668925862400,3.7638623046875,0.008573532104492188,0.005752023309469223,0.0049181729555130005
1730553668935892700,3.773892822265625,0.008429527282714844,0.0104391910135746,0.00490078330039978
1730553668945921500,3.783921630859375,0.01064300537109375,-0.008609868586063385,-0.00689387321472168
1730553668955950600,3.79395068359375,0.0057544708251953125,0.0008725151419639587,0.009671106934547424
1730553668965979100,3.803979248046875,0.0009469985961914062,0.0007769092917442322,-0.004661783576011658
1730553668975984000,3.813984130859375,-0.0061359405517578125,-0.0109410360455513,0.0025473982095718384
1730553668986010400,3.82401025390625,-0.0013217926025390625,-0.015345051884651184,0.0048736631870269775
1730553668996056600,3.834056640625,-0.006012916564941406,-0.0031345412135124207,0.00019815564155578613
1730553669006084900,3.8440849609375,-0.01297760009765625,0.006465982645750046,-0.009265705943107605
1730553669016116200,3.8541162109375,0.0037298202514648438,0.013602718710899353,0.0002727508544921875
1730553669026145000,3.86414501953125,0.0013132095336914062,-0.005501404404640198,0.0049400776624679565
1730553669036179700,3.8741796875,0.008356094360351562,-0.010205499827861786,0.004922017455101013
1730553669046209000,3.884208984375,-0.0012073516845703125,0.004014633595943451,0.00254899263381958
1730553669056226000,3.89422607421875,-0.0035400390625,0.008629605174064636,-0.0070574283599853516
1730553669066254000,3.904254150390625,-0.008192062377929688,0.006354998797178268,0.004901960492134094
1730553669076287200,3.914287353515625,-0.0009870529174804688,0.006372768431901932,0.011899814009666443
1730553669086315800,3.924315673828125,0.0037403106689453125,-0.000776536762714386,0.0046485960483551025
1730553669096343000,3.934343017578125,0.008387565612792969,-0.003199055790901184,-0.009496748447418213
1730553669106371600,3.94437158203125,0.0129547119140625,0.0014808326959609985,-0.0021039992570877075
1730553669116398300,3.9543984375,0.010380744934082031,-0.0009322240948677063,0.002758204936981201
1730553669126426400,3.96442626953125,-0.0015697479248046875,0.015645381063222885,0.00036978721618652344
1730553669136476000,3.974475830078125,-0.022742271423339844,-0.0009769797325134277,0.0026811957359313965
1730553669146506200,3.98450634765625,-0.0035181045532226562,-0.0032408684492111206,0.0002947598695755005
1730553669156489200,3.9944892578125,0.0012502670288085938,0.00164853036403656,0.0003544539213180542
1730553669166515000,4.004514892578125,-0.0011281967163085938,0.01828542724251747,0.0052277445793151855
1730553669176563500,4.0145634765625,0.0036001205444335938,0.010984789580106735,0.005204975605010986
1730553669186591200,4.02459130859375,-0.010594367980957031,-0.000906631350517273,0.009893253445625305
1730553669196626000,4.0346259765625,-0.010416030883789062,-0.0032222867012023926,-0.004494473338127136
1730553669206654500,4.044654541015625,-0.0031757354736328125,-0.005658142268657684,-0.004458174109458923
1730553669216683500,4.05468359375,-0.0031251907348632812,0.0013630315661430359,-0.004320666193962097
1730553669226712300,4.06471240234375,0.0016374588012695312,0.013292409479618073,-0.008895590901374817
1730553669236732000,4.07473193359375,-0.007811546325683594,-0.0054939016699790955,-0.0039713382720947266
1730553669246759700,4.084759765625,0.006451606750488281,0.0041953399777412415,0.0032261312007904053
1730553669256792000,4.0947919921875,0.015769004821777344,0.022887755185365677,0.005437523126602173
1730553669266820400,4.1048203125,-0.01747417449951172,-0.00819607824087143,-0.001602470874786377
1730553669276853500,4.114853515625,-0.0030498504638671875,-0.01992078870534897,0.007807567715644836
1730553669286882300,4.12488232421875,-0.0006427764892578125,-0.003132559359073639,0.0005714297294616699
1730553669296912400,4.134912353515625,-0.012409210205078125,0.0038500353693962097,0.019315466284751892
1730553669306941200,4.144941162109375,-0.014557838439941406,0.024902641773223877,0.002465575933456421
1730553669316949500,4.154949462890625,-0.014313697814941406,0.03388182073831558,-0.002376183867454529
1730553669326976300,4.164976318359375,-0.004650115966796875,-0.004401363432407379,-0.014204457402229309
1730553669337002200,4.175002197265625,-0.0069255828857421875,-0.011424027383327484,-0.016465038061141968
1730553669347029000,4.185029052734375,-0.009166717529296875,-0.009013168513774872,0.005022376775741577
1730553669357059000,4.19505908203125,-0.0019483566284179688,-0.004079930484294891,0.009766161441802979
1730553669367086000,4.205086181640625,-0.00191497802734375,-0.006402648985385895,0.00249674916267395
1730553669377113300,4.21511328125,-0.008948326110839844,-0.01323789358139038,0.004772111773490906
1730553669387140400,4.225140380859375,-0.006440162658691406,0.0058486126363277435,-0.002516239881515503
1730553669397195300,4.2351953125,-0.0016183853149414062,0.005566108971834183,0.002042815089225769
1730553669407225000,4.24522509765625,0.010187149047851562,0.0007328912615776062,-0.0027406662702560425
1730553669417201000,4.255200927734375,0.0029497146606445312,-0.011036030948162079,-0.004986003041267395
1730553669427225300,4.265225341796875,-0.0018091201782226562,-0.0037664398550987244,-0.009653329849243164
1730553669437286100,4.2752861328125,-0.008845329284667969,0.005688067525625229,-0.0071755945682525635
1730553669447314200,4.285314208984375,-0.011050224304199219,-0.008520074188709259,-0.007198438048362732
1730553669457334800,4.295334716796875,-0.013220787048339844,0.005777809768915176,0.00466117262840271
1730553669467362300,4.3053623046875,0.005848884582519531,0.001045726239681244,-0.00032082200050354004
1730553669477391600,4.3153916015625,0.01753520965576172,-0.005912460386753082,-0.0028645843267440796
1730553669487419400,4.32541943359375,0.014887809753417969,-0.005692675709724426,0.0019064545631408691
1730553669497426200,4.33542626953125,-0.0042057037353515625,0.0038926899433135986,0.009004801511764526
1730553669507451600,4.34545166015625,0.0029315948486328125,-0.010333746671676636,0.011172398924827576
1730553669517514800,4.3555146484375,-0.0018291473388671875,0.011116664856672287,0.0016823112964630127
1730553669527544000,4.3655439453125,-0.008867263793945312,-0.012556031346321106,-0.0005860179662704468
1730553669537569800,4.37556982421875,0.0007009506225585938,0.0040565431118011475,-0.0004606693983078003
1730553669547598800,4.385598876953125,0.0030422210693359375,-0.007869996130466461,-0.0027433186769485474
1730553669557634600,4.395634521484375,0.00063323974609375,-0.024259522557258606,0.004537314176559448
1730553669567664400,4.405664306640625,0.012401580810546875,-0.009702809154987335,-0.00028876960277557373
1730553669577686800,4.415686767578125,0.0027790069580078125,-0.00235670804977417,-0.009953781962394714
1730553669587715800,4.4257158203125,0.0027303695678710938,0.01649082824587822,-0.0003024190664291382
1730553669597720600,4.435720458984375,-0.01851654052734375,0.006763283163309097,0.009189650416374207
1730553669607747000,4.4457470703125,0.0006389617919921875,-0.01672164350748062,0.01606668531894684
1730553669617807000,4.45580712890625,0.0029840469360351562,0.00022906064987182617,0.020524978637695312
1730553669627837000,4.4658369140625,0.0029344558715820312,0.0028055906295776367,-0.0009534358978271484
1730553669637853400,4.475853515625,-0.013605117797851562,-0.00894610583782196,-0.007887765765190125
1730553669647881700,4.4858818359375,0.0007543563842773438,-0.011233620345592499,-0.0006243288516998291
1730553669657907500,4.495907470703125,0.012518882751464844,-0.0016521960496902466,-0.0006000697612762451
1730553669667935500,4.505935546875,-0.006533622741699219,-0.00396130234003067,-0.007696107029914856
1730553669677923300,4.51592333984375,0.0006437301635742188,-0.0014693140983581543,-0.005251392722129822
1730553669687947500,4.525947509765625,0.0029897689819335938,0.01035432517528534,0.011234834790229797
1730553669698023000,4.53602294921875,0.007653236389160156,0.019571077078580856,0.008600518107414246
1730553669708052200,4.54605224609375,0.0028171539306640625,0.01460912823677063,-0.0010547786951065063
1730553669718083000,4.5560830078125,-0.01136016845703125,-0.0021538585424423218,-0.012957215309143066
1730553669728112600,4.566112548828125,0.014742851257324219,0.016694989055395126,0.015434935688972473
1730553669738136800,4.57613671875,0.007427215576171875,0.01633690670132637,0.0035171061754226685
1730553669748166000,4.586165771484375,-0.009188652038574219,-0.00752277672290802,0.0035748034715652466
1730553669758187800,4.596187744140625,0.009809494018554688,0.004400566220283508,-0.00118313729763031
1730553669768216000,4.606216064453125,0.007289886474609375,-0.01213933527469635,-0.005861058831214905
1730553669778253000,4.616253173828125,0.004809379577636719,-0.004900775849819183,0.006183043122291565
1730553669788282000,4.6262822265625,0.00237274169921875,0.002526506781578064,0.01561860740184784
1730553669798313500,4.6363134765625,0.014112472534179688,0.01894058659672737,0.012963414192199707
1730553669808342800,4.6463427734375,-0.007320404052734375,0.011424187570810318,0.005538493394851685
1730553669818365200,4.656365234375,-0.0024871826171875,0.008951202034950256,-0.011029690504074097
1730553669828393700,4.666393798828125,0.009327888488769531,-0.0029016435146331787,-0.00832153856754303
1730553669838417000,4.6764169921875,-0.01203155517578125,0.004287615418434143,-0.01272532343864441
1730553669848445000,4.68644482421875,0.009366989135742188,0.0017760097980499268,-0.01239725947380066
1730553669858444800,4.69644482421875,0.0021448135375976562,0.008884787559509277,-0.014585033059120178
1730553669868470000,4.706469970703125,-0.00024509429931640625,-0.012337543070316315,0.006871715188026428
1730553669878540300,4.716540283203125,0.00682830810546875,-0.00048739463090896606,0.004259243607521057
1730553669888570000,4.726570068359375,-0.005061149597167969,0.011214014142751694,-0.0029695332050323486
1730553669898578200,4.736578125,-0.00026226043701171875,0.003926463425159454,-0.0007072985172271729
1730553669908605700,4.746605712890625,-0.01910114288330078,-0.0031856000423431396,-0.00314176082611084
1730553669918640600,4.756640625,0.009480476379394531,0.013375461101531982,0.004093378782272339
1730553669928669000,4.7666689453125,0.014033317565917969,0.010661806911230087,0.0087490975856781
1730553669938696400,4.776696533203125,-0.0074005126953125,-0.015405930578708649,0.010972008109092712
1730553669948724500,4.786724365234375,-0.011991500854492188,0.017799589782953262,-0.005582883954048157
1730553669958750500,4.79675048828125,0.0023412704467773438,-0.0037759244441986084,-0.010238558053970337
1730553669968778500,4.806778564453125,0.0023021697998046875,-0.008352287113666534,-0.007699534296989441
1730553669978801400,4.816801513671875,-0.009514808654785156,-0.0011274367570877075,-0.002795860171318054
1730553669988829000,4.826828857421875,0.009489059448242188,-0.0034911632537841797,-0.009853571653366089
1730553669998858000,4.83685791015625,-0.004799842834472656,0.008473217487335205,-0.0050675272941589355
1730553670008885800,4.8468857421875,-0.00707244873046875,-0.01269281655550003,0.013770848512649536
1730553670018923000,4.856923095703125,-0.014019012451171875,-0.0006361827254295349,0.006382465362548828
1730553670028951800,4.866951904296875,-0.016138076782226562,-0.0029575228691101074,-0.005591452121734619
1730553670038975700,4.876975830078125,-0.011157989501953125,0.011248845607042313,-0.003180593252182007
1730553670049003800,4.887003662109375,-0.010972976684570312,0.01113792136311531,-0.005417227745056152
1730553670059029200,4.897029296875,-0.0060825347900390625,0.01097826287150383,0.004265055060386658
1730553670069057000,4.90705712890625,0.0010862350463867188,0.008466869592666626,-0.0005023479461669922
1730553670079081500,4.91708154296875,0.0010671615600585938,0.006044354289770126,0.011349111795425415
1730553670089109000,4.92710888671875,0.0010442733764648438,0.0035046562552452087,-0.0004498809576034546
1730553670099123700,4.937123779296875,0.0010271072387695312,0.0033629760146141052,0.004229888319969177
1730553670109150000,4.94714990234375,-0.00841522216796875,-0.013056181371212006,-0.00038307905197143555
1730553670119176000,4.957176025390625,-0.010631561279296875,-0.005644768476486206,0.004400014877319336
1730553670129202000,4.967201904296875,-0.010453224182128906,-0.007936723530292511,-0.005134209990501404
1730553670139256600,4.977256591796875,-0.014990806579589844,-0.005478240549564362,-0.00032398104667663574
1730553670149285600,4.98728564453125,-0.00060272216796875,-0.005058698356151581,-0.005121096968650818
1730553670159306800,4.997306640625,0.008829116821289062,0.0021664798259735107,-0.005022257566452026
1730553670169335000,5.0073349609375,0.015743255615234375,-0.0026594698429107666,0.0070604681968688965
1730553670179362300,5.0173623046875,0.00370025634765625,0.006623823195695877,0.014023348689079285
1730553670189390300,5.027390380859375,0.008349418640136719,-0.0006860792636871338,0.00438082218170166
1730553670199424000,5.037424072265625,0.0034971237182617188,0.015786241739988327,0.0020178556442260742
1730553670209452800,5.047452880859375,0.008148193359375,0.010785039514303207,-0.00030544400215148926
1730553670219483000,5.05748291015625,0.0033006668090820312,0.001203097403049469,-0.007354274392127991
1730553670229511700,5.06751171875,0.0032472610473632812,0.027115654200315475,-0.002610906958580017
1730553670239529200,5.077529296875,-0.00858306884765625,0.005329739302396774,0.011475801467895508
1730553670249556700,5.087556640625,-0.0037279129028320312,0.007721252739429474,0.006586521863937378
1730553670259570700,5.09757080078125,-0.01544189453125,0.01483672484755516,-0.012406066060066223
1730553670269597000,5.107596923828125,-0.008116722106933594,0.016911033540964127,-0.017001792788505554
1730553670279643100,5.11764306640625,-0.00562286376953125,0.021256793290376663,-0.00037206709384918213
1730553670289671400,5.12767138671875,0.00860595703125,0.02563611790537834,0.004255279898643494
1730553670299697700,5.13769775390625,0.008463859558105469,0.013399343937635422,0.001789867877960205
1730553670309725700,5.1477255859375,0.015390396118164062,0.02026285231113434,0.018210142850875854
1730553670319758800,5.1577587890625,0.0010013580322265625,0.017383765429258347,0.03901644051074982
1730553670329787400,5.167787353515625,0.0033397674560546875,-0.0017281100153923035,0.0360240638256073
1730553670339786800,5.177786865234375,-0.0014276504516601562,-0.02297910302877426,0.03543742001056671
1730553670349812500,5.1878125,-0.013179779052734375,-0.03675765544176102,0.018216371536254883
1730553670359863300,5.19786328125,0.0035266876220703125,-0.04779309034347534,-0.010235920548439026
1730553670369891300,5.207891357421875,-0.005957603454589844,-0.03990497440099716,-0.03109610080718994
1730553670379895000,5.21789501953125,-0.0058574676513671875,-0.020317725837230682,-0.04945959150791168
1730553670389920800,5.227920654296875,0.006016731262207031,0.0061604343354702,-0.06971883773803711
1730553670399978800,5.237978759765625,0.020050048828125,0.02492251992225647,-0.07555884122848511
1730553670410007600,5.248007568359375,-0.0014848709106445312,0.041017450392246246,-0.036597177386283875
1730553670420036000,5.2580361328125,0.003253936767578125,0.042760107666254044,-0.0196409672498703
1730553670430065200,5.268065185546875,-0.0015087127685546875,0.04442429542541504,0.02064080536365509
1730553670440071700,5.27807177734375,0.007937431335449219,0.031928420066833496,0.04391761124134064
1730553670450098400,5.288098388671875,-0.011040687561035156,-0.013283126056194305,0.0526738315820694
1730553670460129000,5.29812890625,0.0009202957153320312,-0.027016282081604004,0.05426882207393646
1730553670470156000,5.308156005859375,0.005614280700683594,-0.045283496379852295,0.0392964631319046
1730553670480207400,5.318207275390625,-0.022745132446289062,-0.044402532279491425,0.022165998816490173
1730553670490236700,5.328236572265625,0.0011892318725585938,-0.04599560797214508,0.0006616264581680298
1730553670500253700,5.338253662109375,0.012948036193847656,-0.03112364560365677,-0.006454005837440491
1730553670510282000,5.348281982421875,0.0009508132934570312,-0.0188022181391716,-0.032088324427604675
1730553670520310500,5.358310546875,0.0032901763916015625,0.012158442288637161,-0.029183760285377502
1730553670530338800,5.3683388671875,0.015012741088867188,0.040299251675605774,-0.02392028272151947
1730553670540358100,5.378358154296875,-0.0064373016357421875,0.023109305649995804,-0.030626535415649414
1730553670550385700,5.3883857421875,0.0030889511108398438,0.024996347725391388,-0.0064440518617630005
1730553670560386800,5.39838671875,-0.013449668884277344,-0.0012059807777404785,0.0006919056177139282
1730553670570411500,5.40841162109375,0.0009098052978515625,0.017888080328702927,0.017182886600494385
1730553670580465200,5.418465087890625,0.005606651306152344,-0.01992463320493698,0.00272369384765625
1730553670590492700,5.42849267578125,0.0031585693359375,-0.04077613353729248,0.012060627341270447
1730553670600511000,5.438510986328125,0.019596099853515625,-0.023431159555912018,0.011924445629119873
1730553670610537700,5.448537841796875,-0.011351585388183594,-0.03453852981328964,0.0023165494203567505
1730553670620601600,5.4586015625,-0.001743316650390625,-0.01739821583032608,-0.0022635161876678467
1730553670630632000,5.4686318359375,0.0006437301635742188,-0.021795764565467834,0.009462401270866394
1730553670640636700,5.47863671875,-0.011144638061523438,-0.0025678351521492004,-0.0025120526552200317
1730553670650664700,5.488664794921875,-0.0015363693237304688,0.016392581164836884,-0.007168203592300415
1730553670660698000,5.498697998046875,0.005557060241699219,0.028020918369293213,-0.002376556396484375
1730553670670726700,5.5087265625,0.014886856079101562,0.04422180354595184,-0.004626914858818054
1730553670680742700,5.51874267578125,-0.0018520355224609375,0.0270710289478302,0.0026341378688812256
1730553670690770000,5.52877001953125,-0.008891105651855469,0.010256759822368622,-0.0019521862268447876
1730553670700798500,5.538798583984375,0.003032684326171875,0.0007906332612037659,-0.001802295446395874
1730553670710825700,5.54882568359375,-0.025285720825195312,-0.003808923065662384,0.0077149271965026855
1730553670720854500,5.5588544921875,-0.02015399932861328,-0.024715006351470947,0.005348116159439087
1730553670730882000,5.568882080078125,0.01787090301513672,0.008850302547216415,0.005323514342308044
1730553670740893200,5.57889306640625,0.005794525146484375,-0.005410574376583099,0.0005363970994949341
1730553670750919200,5.588919189453125,-0.020212173461914062,0.0063247233629226685,-0.0019180923700332642
1730553670760945000,5.59894482421875,-0.0010290145874023438,0.0040402039885520935,0.0027864426374435425
1730553670770989600,5.608989501953125,-0.017503738403320312,-0.0029665306210517883,-0.004157364368438721
1730553670781016800,5.619016845703125,-0.012500762939453125,-0.00048616528511047363,0.002940759062767029
1730553670791055600,5.6290556640625,-0.0005168914794921875,-0.0028641223907470703,0.007719635963439941
1730553670801084200,5.639084228515625,-0.0005121231079101562,0.006676599383354187,0.0006919056177139282
1730553670811111200,5.649111083984375,-0.0005044937133789062,-0.00042722374200820923,-0.003965526819229126
1730553670821139200,5.65913916015625,-0.007564544677734375,-0.002649739384651184,0.010299235582351685
1730553670831188000,5.66918798828125,0.0043430328369140625,-0.00222015380859375,0.012444838881492615
1730553670841218000,5.679218017578125,-0.00043773651123046875,0.00977243110537529,0.009843587875366211
1730553670851224800,5.689224853515625,0.011345863342285156,0.00020848959684371948,0.0003219693899154663
1730553670861252600,5.699252685546875,-0.0006208419799804688,-0.006840437650680542,0.009752050042152405
1730553670871271400,5.709271484375,-0.0006113052368164062,0.0004661157727241516,-0.0021231770515441895
1730553670881298400,5.71929833984375,-0.0100250244140625,0.010006565600633621,0.0003330111503601074
1730553670891326000,5.729325927734375,-0.012213706970214844,0.01226837933063507,0.0003406107425689697
1730553670901353000,5.73935302734375,-0.01907634735107422,0.014597129076719284,-0.016088873147964478
1730553670911392500,5.749392578125,-0.0069789886474609375,0.007569752633571625,-0.011095687747001648
1730553670921420800,5.7594208984375,-0.02099609375,0.017040051519870758,-0.003779873251914978
1730553670931446000,5.769446044921875,0.0005483627319335938,0.011962726712226868,-0.010563597083091736
1730553670941474000,5.77947412109375,0.000537872314453125,0.007074639201164246,0.006166711449623108
1730553670951500800,5.789500732421875,0.00524139404296875,0.014147017151117325,0.010736122727394104
1730553670961528800,5.79952880859375,-0.004269599914550781,-0.00015152990818023682,0.010673075914382935
1730553670971546000,5.809546142578125,-0.011264801025390625,-0.007247321307659149,0.01987859606742859
1730553670981572900,5.81957275390625,0.0007028579711914062,-0.00705353170633316,0.01008637249469757
1730553670991615000,5.829614990234375,0.0030469894409179688,0.009575534611940384,0.007576212286949158
1730553671001643300,5.839643310546875,-0.008782386779785156,0.009437214583158493,0.007463082671165466
1730553671011668500,5.84966845703125,-0.006279945373535156,0.011810757219791412,-0.0020190924406051636
1730553671021696500,5.859696533203125,-0.013240814208984375,-0.00014737248420715332,-0.004381030797958374
1730553671031736800,5.86973681640625,0.019957542419433594,0.025787707418203354,0.014549747109413147
1730553671041766100,5.87976611328125,0.014914512634277344,0.018257204443216324,0.00013412535190582275
1730553671051788500,5.88978857421875,0.009955406188964844,-0.005533367395401001,-0.021107912063598633
1730553671061817000,5.899817138671875,0.005080223083496094,-0.031072497367858887,-0.02309855818748474
1730553671071911400,5.909911376953125,-0.0020704269409179688,-0.025922685861587524,-0.020395755767822266
1730553671081946600,5.919946533203125,-0.009105682373046875,-0.013847962021827698,-0.01999126374721527
1730553671091906000,5.929906005859375,-0.0089569091796875,0.009854640811681747,0.0016571879386901855
1730553671101933600,5.93993359375,0.00296783447265625,0.005000516772270203,0.011168479919433594
1730553671111963100,5.949963134765625,0.012340545654296875,0.00023079663515090942,0.006285414099693298
1730553671121991000,5.959990966796875,-0.0019989013671875,0.004913464188575745,0.013262316584587097
1730553671132018200,5.97001806640625,0.0074520111083984375,0.004749387502670288,0.017920762300491333
1730553671142046000,5.9800458984375,0.004969596862792969,-0.002426944673061371,0.0012496709823608398
1730553671152076300,5.990076171875,-0.0045299530029296875,0.009412657469511032,0.0009832531213760376
1730553671162104300,6.000104248046875,-0.00681304931640625,0.011583231389522552,-0.01304924488067627
1730553671172090000,6.010090087890625,-0.011416435241699219,0.01141253113746643,-0.017271891236305237
1730553671182113800,6.02011376953125,0.017053604125976562,0.004387207329273224,-0.010368511080741882
1730553671192182800,6.030182861328125,0.016775131225585938,-0.0001679062843322754,0.001387566328048706
1730553671202211000,6.040211181640625,9.5367431640625e-7,0.009380783885717392,-0.0054308027029037476
1730553671212248000,6.050248046875,-0.016488075256347656,0.011656589806079865,0.008807390928268433
1730553671222277000,6.060277099609375,-0.011502265930175781,0.0021694377064704895,0.013386324048042297
1730553671232297200,6.070297119140625,0.019313812255859375,-0.004911020398139954,0.008413851261138916
1730553671242325500,6.080325439453125,0.021345138549804688,-0.02616211771965027,-0.005794599652290344
1730553671252350000,6.090349853515625,0.0021419525146484375,-0.011672481894493103,-0.0008695721626281738
1730553671262378000,6.1003779296875,0.011525154113769531,-0.03270741552114487,-0.012515977025032043
1730553671272415000,6.1104150390625,-0.012220382690429688,-0.020311325788497925,-0.01946452260017395
1730553671282443800,6.12044384765625,-0.009660720825195312,-0.0035659819841384888,-0.009756416082382202
1730553671292468700,6.13046875,0.006988525390625,0.015357006341218948,-0.011885255575180054
1730553671302497000,6.1404970703125,0.023367881774902344,0.024649284780025482,-0.02842138707637787
1730553671312520400,6.1505205078125,0.011250495910644531,0.027393396943807602,0.040768131613731384
1730553671322548500,6.160548583984375,-0.031317710876464844,0.04391399025917053,0.011162623763084412
1730553671332580400,6.170580322265625,-0.0048618316650390625,0.05057947337627411,0.026546716690063477
1730553671342608600,6.180608642578125,0.007012367248535156,0.04289679974317551,0.009007155895233154
1730553671352640000,6.190639892578125,0.009290695190429688,0.005080863833427429,0.00025007128715515137
1730553671362668500,6.20066845703125,0.006806373596191406,-0.025245219469070435,-0.021976709365844727
1730553671372666000,6.210666015625,0.0020084381103515625,-0.07150449603796005,-0.022629722952842712
1730553671382691600,6.220691650390625,0.025536537170410156,-0.0772535651922226,-0.01071980595588684
1730553671392741600,6.23074169921875,-0.012553215026855469,-0.047522224485874176,-0.04218760132789612
1730553671402769700,6.240769775390625,0.058417320251464844,-0.06184662878513336,-0.012061461806297302
1730553671412797200,6.250797119140625,0.01519775390625,-0.0020875856280326843,-0.019946366548538208
1730553671422825200,6.2608251953125,0.03878211975097656,0.02126060426235199,-0.013047739863395691
1730553671432834800,6.270834716796875,-0.03915119171142578,0.06121193617582321,0.01956382393836975
1730553671442861000,6.280861083984375,-0.01681804656982422,0.09298869967460632,0.014381557703018188
1730553671452913200,6.2909130859375,-0.013745307922363281,0.06852398812770844,-0.032750844955444336
1730553671462942000,6.30094189453125,0.050484657287597656,0.08990626782178879,-0.19702541828155518
1730553671472959500,6.31095947265625,0.07594490051269531,0.16168776154518127,-0.7812021970748901
1730553671482987000,6.320987060546875,0.133880615234375,0.10484746098518372,-1.2622578144073486
1730553671493015800,6.331015869140625,0.04952049255371094,-0.05728483200073242,-0.6550613045692444
1730553671503043300,6.341043212890625,-0.014650344848632812,-0.05253195762634277,0.47949618101119995
1730553671513070800,6.35107080078125,-0.0967416763305664,-0.13239841163158417,1.023637294769287
1730553671523061200,6.361061279296875,0.0014181137084960938,-0.14139188826084137,0.6005616188049316
1730553671533086200,6.371086181640625,0.02025318145751953,0.0029635578393936157,-0.16547031700611115
1730553671543166200,6.381166259765625,-0.027060508728027344,0.08288650214672089,-0.5068837404251099
1730553671553196500,6.391196533203125,-0.02419281005859375,0.0024263113737106323,-0.3293549120426178
1730553671563227400,6.401227294921875,-0.012042999267578125,-0.09593677520751953,0.0775807797908783
1730553671573257700,6.4112578125,-0.0069942474365234375,-0.1489955186843872,0.6940721869468689
1730553671583271000,6.42127099609375,0.04051685333251953,-0.10722768306732178,0.9201334714889526
1730553671593318100,6.431318115234375,-0.046993255615234375,-0.03573426604270935,0.6561936736106873
1730553671603326500,6.441326416015625,-0.11184978485107422,0.09934306144714355,0.08767300844192505
1730553671613356800,6.451356689453125,0.007922172546386719,-0.057974427938461304,0.019991010427474976
1730553671623387100,6.46138720703125,0.10430240631103516,0.04723910987377167,0.11154347658157349
1730553671633416000,6.471416015625,0.027092933654785156,0.044569551944732666,-0.02161887288093567
1730553671643446300,6.4814462890625,-0.07692718505859375,-0.08843186497688293,-0.09760993719100952
1730553671653476600,6.4914765625,0.013875961303710938,-0.13410714268684387,-0.039914608001708984
1730553671663507000,6.5015068359375,-0.0029077529907226562,0.0013456642627716064,0.05148422718048096
1730553671673524500,6.5115244140625,0.046593666076660156,-0.07166993618011475,0.08200597763061523
1730553671683553500,6.521553466796875,-0.020171165466308594,-0.07225605845451355,0.03342363238334656
1730553671693560300,6.531560302734375,-0.07170295715332031,-0.08016231656074524,0.0662127137184143
1730553671703587000,6.541587158203125,-0.03991889953613281,-0.08157956600189209,0.17046847939491272
1730553671713650200,6.551650146484375,-0.025061607360839844,0.01252204179763794,0.12226542830467224
1730553671723680500,6.561680419921875,0.053195953369140625,-0.018007516860961914,-0.07593585550785065
1730553671733701600,6.57170166015625,0.031210899353027344,-0.19143524765968323,-0.20674587786197662
1730553671743731200,6.581731201171875,0.016676902770996094,-0.3519909977912903,-0.3941251039505005
1730553671753749800,6.591749755859375,-0.05415821075439453,-0.31665199995040894,-0.6626269221305847
1730553671763778000,6.601778076171875,-0.0742807388305664,-0.08884981274604797,-0.7550100684165955
1730553671773793300,6.611793212890625,0.07321357727050781,0.059358447790145874,-0.4852633476257324
1730553671783820300,6.6218203125,0.04627227783203125,-0.004881381988525391,-0.040703192353248596
1730553671793867000,6.631866943359375,0.04094505310058594,0.17829139530658722,0.3861050009727478
1730553671803896000,6.64189599609375,0.09926128387451172,0.4075731635093689,0.5305798053741455
1730553671813919200,6.651919189453125,0.11175823211669922,0.5264397859573364,0.5615391135215759
1730553671823947500,6.661947509765625,0.05793285369873047,0.3255278766155243,0.4345123767852783
1730553671833979100,6.671979248046875,-0.11514091491699219,-0.09440967440605164,0.3543827533721924
1730553671844007700,6.682007568359375,-0.19805622100830078,-0.09423166513442993,0.24733974039554596
1730553671854028800,6.69202880859375,-0.24648189544677734,0.04854041337966919,0.006859511137008667
1730553671864056800,6.702056884765625,0.07107257843017578,0.17961663007736206,-0.32877397537231445
1730553671874070000,6.712070068359375,0.2160320281982422,0.16391052305698395,-0.10401412844657898
1730553671884096500,6.722096435546875,0.1747446060180664,0.08309751749038696,-0.006111413240432739
1730553671894142200,6.73214208984375,0.28722286224365234,0.0418609082698822,-0.0651499480009079
1730553671904170500,6.74217041015625,0.23292827606201172,-0.11968779563903809,0.1604606956243515
1730553671914199000,6.752198974609375,0.21966552734375,-0.32670167088508606,0.38220351934432983
1730553671924227300,6.762227294921875,0.26796817779541016,-0.17665639519691467,0.5683226585388184
1730553671934244400,6.772244384765625,0.29898643493652344,0.07244160771369934,0.44966238737106323
1730553671944272000,6.78227197265625,0.35060787200927734,0.23866304755210876,-0.00753973051905632
1730553671954286000,6.7922861328125,0.44372081756591797,0.15620583295822144,-0.4358430504798889
1730553671964312000,6.80231201171875,0.5139894485473633,-0.050055116415023804,-0.7218503355979919
1730553671974353400,6.812353515625,0.5639686584472656,-0.2092990279197693,-0.6664232015609741
1730553671984381000,6.822380859375,0.4007129669189453,-0.2804933190345764,-0.29171305894851685
1730553671994423300,6.83242333984375,0.04442310333251953,-0.20608383417129517,-0.09947379678487778
1730553672004452400,6.842452392578125,-0.084381103515625,0.05869787931442261,-0.04131953418254852
1730553672014476000,6.85247607421875,0.03424358367919922,0.3734852969646454,0.0670643150806427
1730553672024504300,6.86250439453125,0.1041574478149414,0.5818541049957275,0.2729649841785431
1730553672034524200,6.872524169921875,0.45839500427246094,0.45816659927368164,0.35183680057525635
1730553672044551700,6.8825517578125,0.7621650695800781,0.09216050803661346,0.15855687856674194
1730553672054584800,6.892584716796875,0.7426280975341797,-0.3512776494026184,0.08127887547016144
1730553672064613000,6.902613037109375,0.5416269302368164,-0.6012978553771973,0.28172287344932556
1730553672074633000,6.912633056640625,0.2422952651977539,-0.5421419143676758,0.04841268062591553
1730553672084660500,6.922660400390625,0.01381683349609375,-0.4599350392818451,-0.28650495409965515
1730553672094691000,6.932691162109375,-0.052781105041503906,-0.21854346990585327,-0.49651506543159485
1730553672104718800,6.94271875,-0.15790653228759766,0.02228127047419548,-0.4890947639942169
1730553672114753500,6.95275341796875,-0.10515689849853516,0.09549394249916077,-0.42730841040611267
1730553672124781800,6.96278173828125,0.31493377685546875,0.03160788118839264,-0.3725523352622986
1730553672134775600,6.972775634765625,0.6835699081420898,0.021476827561855316,-0.13311707973480225
1730553672144800500,6.982800537109375,1.001509666442871,0.16279390454292297,0.2978403568267822
1730553672154854100,6.992854248046875,1.4932889938354492,0.22362005710601807,0.6546131372451782
1730553672164882000,7.0028818359375,1.992964744567871,0.04686914384365082,0.7870638966560364
1730553672174914000,7.0129140625,2.32589054107666,-0.29182520508766174,0.6001312136650085
1730553672184942000,7.022942138671875,2.39395809173584,-0.26453959941864014,0.387393057346344
1730553672194934800,7.032934814453125,2.3434696197509766,-0.3239004611968994,0.10112637281417847
1730553672204959500,7.04295947265625,2.0584402084350586,-0.650711715221405,-0.2601604759693146
1730553672215025000,7.05302490234375,1.702920913696289,-0.6566793322563171,-0.6169549226760864
1730553672225053400,7.063053466796875,1.4327707290649414,-0.4802798628807068,-0.9584094285964966
1730553672235095000,7.073094970703125,1.3218746185302734,-0.4602850079536438,-1.1300030946731567
1730553672245124900,7.083124755859375,1.2836475372314453,-0.5528954863548279,-0.9776294827461243
1730553672255142100,7.09314208984375,1.2505836486816406,-0.5719038248062134,-0.8738588094711304
1730553672265170700,7.103170654296875,1.2007684707641602,-0.43738073110580444,-1.06351900100708
1730553672275210800,7.113210693359375,1.198349952697754,-0.5155890583992004,-1.2780603170394897
1730553672285240600,7.123240478515625,1.0327939987182617,-0.773551881313324,-1.3900306224822998
1730553672295292200,7.133292236328125,0.7554521560668945,-1.0218721628189087,-1.6530399322509766
1730553672305324000,7.143323974609375,0.47019195556640625,-1.2243109941482544,-2.009000778198242
1730553672315320600,7.153320556640625,0.2252206802368164,-1.057065486907959,-2.1787915229797363
1730553672325349000,7.16334912109375,-0.07979869842529297,-0.9478282332420349,-2.0756139755249023
1730553672335376600,7.173376708984375,-0.27733325958251953,-1.2975908517837524,-1.6926319599151611
1730553672345405000,7.183405029296875,-0.5452165603637695,-1.4998794794082642,-1.0490014553070068
1730553672355428600,7.1934287109375,-0.9962501525878906,-1.0961754322052002,-0.7957497835159302
1730553672365456400,7.203456298828125,-1.3001623153686523,-1.1171321868896484,-1.091803789138794
1730553672375464200,7.213464111328125,-1.5819149017333984,-1.427297592163086,-1.5095126628875732
1730553672385490200,7.223490234375,-1.9751873016357422,-1.3423585891723633,-1.3654999732971191
1730553672395516400,7.233516357421875,-2.1468605995178223,-1.133062720298767,-0.8815385103225708
1730553672405542400,7.24354248046875,-1.9804134368896484,-1.0482831001281738,-0.7453001737594604
1730553672415598800,7.253598876953125,-1.7455863952636719,-0.828682541847229,-0.9875830411911011
1730553672425628000,7.2636279296875,-1.6899099349975586,-0.5306151509284973,-0.9764914512634277
1730553672435648000,7.27364794921875,-1.5738506317138672,-0.49812671542167664,-0.334536075592041
1730553672445676000,7.283676025390625,-1.5651750564575195,-0.7176139950752258,0.5698739290237427
1730553672455708000,7.2937080078125,-1.663100242614746,-0.7728443145751953,1.297218918800354
1730553672465736200,7.303736083984375,-1.7156143188476562,-0.5651073455810547,1.403908133506775
1730553672475754000,7.31375390625,-1.7891159057617188,-0.30812907218933105,1.1969919204711914
1730553672485781200,7.32378125,-1.7707433700561523,-0.18939417600631714,1.1405786275863647
1730553672495823600,7.33382373046875,-1.6328296661376953,-0.04082632064819336,1.3059625625610352
1730553672505852400,7.343852294921875,-1.544724464416504,0.12613821029663086,1.287868618965149
1730553672515873800,7.353873779296875,-1.5262451171875,0.2578051686286926,1.2043784856796265
1730553672525902000,7.363902099609375,-1.5266656875610352,0.44765788316726685,1.1026792526245117
1730553672535940400,7.3739404296875,-1.6266422271728516,0.5480517745018005,0.7826380729675293
1730553672545969700,7.3839697265625,1.1317520141601562,0.9827410578727722,3.2390692234039307
1730553672555994400,7.393994384765625,3.700432777404785,1.454227328300476,4.831900596618652
1730553672566023200,7.404023193359375,2.8340330123901367,0.6123825311660767,1.6882703304290771
1730553672576031200,7.41403125,3.2547531127929688,-0.0330049991607666,1.1128382682800293
1730553672586058000,7.42405810546875,1.0000028610229492,0.2467653751373291,-0.0627894401550293
1730553672596102000,7.434101806640625,-1.2651195526123047,-0.08508515357971191,-0.7236849069595337
1730553672606130400,7.44413037109375,-2.3769631385803223,-0.5314414501190186,-0.24525564908981323
1730553672616156400,7.454156494140625,-2.479531764984131,-0.3243529796600342,0.31901082396507263
1730553672626184700,7.464184814453125,-2.808480739593506,0.140425443649292,0.304271399974823
1730553672636218600,7.474218505859375,-3.9311065673828125,0.4529857635498047,-0.40835750102996826
1730553672646247400,7.484247314453125,-4.144744396209717,1.2038323879241943,-0.9087647795677185
1730553672656238600,7.494238525390625,-3.623772621154785,1.1714105606079102,-0.6727951765060425
1730553672666263600,7.504263671875,-2.896531581878662,0.7531182765960693,-0.40220892429351807
1730553672676305700,7.5143056640625,-1.5126867294311523,0.550689697265625,-0.10516935586929321
1730553672686332400,7.52433251953125,-0.2219095230102539,0.4951965808868408,-0.07408592104911804
1730553672696381200,7.534381103515625,0.7502851486206055,0.6393084526062012,-0.7788770794868469
1730553672706410000,7.544409912109375,0.5079431533813477,0.30353856086730957,-0.46883976459503174
1730553672716437000,7.55443701171875,0.5018758773803711,-0.07155680656433105,0.5691248178482056
1730553672726465800,7.5644658203125,1.4128837585449219,0.46700072288513184,-0.7016027569770813
1730553672736490800,7.57449072265625,1.5536565780639648,0.6269580125808716,-1.1756603717803955
1730553672746519000,7.58451904296875,1.5613422393798828,0.8285330533981323,-0.4165319502353668
1730553672756542200,7.594542236328125,1.8911151885986328,0.8854520320892334,-0.36342835426330566
1730553672766570000,7.604570068359375,1.419830322265625,0.5965914726257324,-0.9545060992240906
1730553672776594000,7.614593994140625,1.224273681640625,0.4609241485595703,-1.3003700971603394
1730553672786621200,7.62462109375,1.5008211135864258,0.19264769554138184,-1.2539294958114624
1730553672796662000,7.634662109375,0.9982099533081055,0.17293000221252441,-1.2796438932418823
1730553672806690800,7.64469091796875,1.1911983489990234,0.7776596546173096,-1.0767775774002075
1730553672816710700,7.654710693359375,1.7041034698486328,1.201216220855713,-1.5145596265792847
1730553672826738700,7.66473876953125,1.8933725357055664,1.193706750869751,-2.005133867263794
1730553672836768500,7.6747685546875,1.1891117095947266,0.4973592758178711,-1.5118985176086426
1730553672846796800,7.684796875,-0.27068233489990234,-0.4745209217071533,-0.523175060749054
1730553672856814600,7.694814697265625,-1.7695965766906738,-0.8712759017944336,0.36574769020080566
1730553672866841900,7.704841796875,-2.5202884674072266,-0.9341950416564941,1.2360894680023193
1730553672876872000,7.714871826171875,-2.8801498413085938,-1.2039854526519775,2.12502384185791
1730553672886899200,7.724899169921875,-3.060243606567383,-1.7878905534744263,2.5034656524658203
1730553672896931800,7.734931884765625,-2.893117904663086,-2.226905107498169,2.262378692626953
1730553672906960000,7.7449599609375,-2.685032367706299,-2.0136022567749023,1.9002629518508911
1730553672916970000,7.754969970703125,-2.5800299644470215,-1.3864753246307373,1.4396862983703613
1730553672926996200,7.764996337890625,-2.2403693199157715,-0.9237978458404541,0.8868294954299927
1730553672937047600,7.775047607421875,-1.8030929565429688,-0.37481689453125,0.23108625411987305
1730553672947076000,7.785076171875,-1.5391254425048828,0.061664581298828125,-0.17871570587158203
1730553672957081000,7.7950810546875,-1.513902187347412,0.4423491954803467,-0.19529592990875244
1730553672967107300,7.805107421875,-0.7863531112670898,1.0508792400360107,-0.4284283518791199
1730553672977154000,7.815154052734375,0.7746963500976562,1.1674225330352783,-0.5532418489456177
1730553672987182300,7.825182373046875,1.7112789154052734,0.6892111301422119,-0.034532248973846436
1730553672997221400,7.835221435546875,2.1219100952148438,0.09854745864868164,0.6161673665046692
1730553673007251000,7.8452509765625,2.267099380493164,-0.5232908725738525,0.9065753817558289
1730553673017281800,7.85528173828125,2.122957229614258,-0.9645335674285889,0.8421528339385986
1730553673027311600,7.8653115234375,1.498551368713379,-1.0884344577789307,0.5997287631034851
1730553673037335300,7.875335205078125,0.4331245422363281,-0.9583795070648193,0.0673174262046814
1730553673047364400,7.8853642578125,-0.7794113159179688,-0.67769455909729,-0.26697152853012085
1730553673057346300,7.89534619140625,-1.8930411338806152,-0.42435383796691895,-0.29945945739746094
1730553673067370800,7.905370849609375,-2.8292593955993652,-0.24591302871704102,-0.315301775932312
1730553673077445400,7.9154453125,-3.415647029876709,-0.1842331886291504,-0.14556515216827393
1730553673087475000,7.925474853515625,-3.6273622512817383,-0.2787771224975586,0.09510362148284912
1730553673097473300,7.935473388671875,-3.332219123840332,-0.4051656723022461,0.3878868818283081
1730553673107499500,7.94549951171875,-2.499971389770508,-0.664740800857544,0.636634111404419
1730553673117560800,7.955560791015625,-1.3915038108825684,-0.973961591720581,0.8199422359466553
1730553673127590400,7.96559033203125,-0.36820507049560547,-1.2325785160064697,0.9018970727920532
1730553673137610000,7.97560986328125,0.31949806213378906,-1.2146763801574707,0.5796140432357788
1730553673147638500,7.985638427734375,0.8116273880004883,-0.9851377010345459,0.10479795932769775
1730553673157671700,7.995671630859375,1.1912307739257812,-0.7630660533905029,-0.4001219868659973
1730553673167701000,8.005700927734376,1.2441577911376953,-0.567141056060791,-0.5346042513847351
1730553673177726500,8.0157265625,1.1222848892211914,-0.439394474029541,-0.3868800699710846
1730553673187755300,8.02575537109375,0.8402862548828125,-0.4764988422393799,-0.31566324830055237
1730553673197779000,8.035779052734375,0.4404935836791992,-0.5800487995147705,-0.2991636097431183
1730553673207807200,8.04580712890625,-0.07651996612548828,-0.5863375663757324,-0.20820271968841553
1730553673217838600,8.055838623046874,-0.6565628051757812,-0.4986155033111572,-0.07232965528964996
1730553673227867100,8.0658671875,-1.2857928276062012,-0.35008788108825684,-0.10919085144996643
1730553673237882600,8.075882568359376,-1.824617862701416,-0.19275856018066406,-0.19275891780853271
1730553673247910000,8.085909912109376,-2.144534111022949,-0.10123443603515625,-0.18287290632724762
1730553673257944000,8.095944091796875,-2.155369758605957,0.07423877716064453,-0.3086802065372467
1730553673267972000,8.10597216796875,-1.913316249847412,0.3434286117553711,-0.7719704508781433
1730553673278005200,8.116005126953125,-1.8349452018737793,0.9641642570495605,-2.1765315532684326
1730553673288033500,8.126033447265625,-1.707350254058838,1.9775123596191406,-3.6383044719696045
1730553673298055200,8.13605517578125,-1.8707599639892578,2.063333034515381,-3.3566677570343018
1730553673308083000,8.1460830078125,-1.6737380027770996,0.8645434379577637,-2.3072996139526367
1730553673318067000,8.15606689453125,-0.4926462173461914,-0.5897979736328125,-1.3674125671386719
1730553673328090400,8.16609033203125,1.0958213806152344,-1.43792724609375,-0.5754045844078064
1730553673338159400,8.176159423828125,2.021603584289551,-1.667149305343628,-0.2323288917541504
1730553673348187400,8.1861875,1.8508853912353516,-1.5113651752471924,-0.2839784622192383
1730553673358203400,8.196203369140624,1.1046161651611328,-1.0365991592407227,-0.4516671299934387
1730553673368230100,8.206230224609374,-0.22782039642333984,-0.5354571342468262,-0.4401363730430603
1730553673378281500,8.216281494140626,-1.640622615814209,-0.3510887622833252,-0.7422147393226624
1730553673388310500,8.226310546875,-2.349335193634033,-0.30175256729125977,-0.7831617593765259
1730553673398333400,8.23633349609375,-2.18784761428833,-0.12589597702026367,-0.20833897590637207
1730553673408362000,8.246362060546875,-2.2803163528442383,-0.6496734619140625,-1.253861427307129
1730553673418391800,8.256391845703124,-1.6969857215881348,-0.700279951095581,-0.8707348704338074
1730553673428420600,8.266420654296875,-0.3331289291381836,-0.44364118576049805,0.012666702270507812
1730553673438435800,8.276435791015626,0.772160530090332,-0.23138833045959473,0.353804349899292
1730553673448463000,8.286463134765626,0.8162069320678711,-0.16071414947509766,0.3633979558944702
1730553673458497300,8.296497314453125,0.5808620452880859,-0.11044764518737793,0.34821435809135437
1730553673468525300,8.306525390625,0.5267257690429688,-0.033979177474975586,0.3081446886062622
1730553673478559500,8.3165595703125,0.3373575210571289,0.038285017013549805,0.3957812190055847
1730553673488588000,8.326588134765625,-0.02173328399658203,0.19286465644836426,0.4412415623664856
1730553673498611200,8.336611083984375,-0.09368515014648438,0.9257304668426514,0.06733247637748718
1730553673508639200,8.34663916015625,-0.050533294677734375,1.1547372341156006,-0.01259826123714447
1730553673518681300,8.356681396484374,0.18363475799560547,0.6609537601470947,-0.010592252016067505
1730553673528711000,8.3667109375,0.003368377685546875,0.0827796459197998,0.05500161647796631
1730553673538713600,8.376713623046875,-0.5731878280639648,0.3546011447906494,0.09556716680526733
1730553673548740400,8.386740234375,-1.9144902229309082,1.0594148635864258,0.4748222827911377
1730553673558780700,8.39678076171875,0.8470668792724609,0.9719808101654053,0.0023120641708374023
1730553673568808700,8.40680859375,1.431467056274414,0.2931697368621826,-0.8651567697525024
1730553673578841000,8.416841064453125,0.8326129913330078,-0.21138668060302734,0.4834469258785248
1730553673588869600,8.42686962890625,-0.10173797607421875,-0.4022253751754761,1.5502958297729492
1730553673598895900,8.436895751953125,-0.3111410140991211,-0.021996498107910156,0.1032167375087738
1730553673608924200,8.446924072265626,-0.008784294128417969,0.5388646125793457,-0.7240724563598633
1730553673618927600,8.456927734375,0.30887413024902344,0.7530772686004639,-0.3989386558532715
1730553673628953300,8.466953369140626,0.49585819244384766,0.6021487712860107,-0.024255454540252686
1730553673638990300,8.476990234375,0.5202417373657227,0.5302557945251465,0.22669894993305206
1730553673649017300,8.487017333984374,0.5907669067382812,0.5181159973144531,0.22902576625347137
1730553673659061500,8.4970615234375,0.5934610366821289,0.22948503494262695,0.3048911392688751
1730553673669090000,8.507090087890624,0.4048423767089844,-0.07564949989318848,0.9955835342407227
1730553673679117000,8.517116943359374,-0.2647991180419922,-0.10059678554534912,1.6467218399047852
1730553673689145300,8.527145263671875,-0.8747320175170898,0.1374596357345581,1.4467607736587524
1730553673699167700,8.537167724609375,-0.8521919250488281,0.5845892429351807,1.094257116317749
1730553673709195500,8.547195556640625,-0.5672330856323242,0.9932260513305664,1.2415297031402588
1730553673719226000,8.55722607421875,-0.7762928009033203,0.8586925268173218,1.0194964408874512
1730553673729254100,8.567254150390625,-1.5061559677124023,0.39246630668640137,0.0806359201669693
1730553673739271700,8.577271728515624,-1.494680404663086,-0.09202539920806885,-0.9009886980056763
1730553673749298700,8.587298583984374,-0.7728853225708008,-0.360842227935791,-1.505699872970581
1730553673759343600,8.597343505859374,0.09464073181152344,-0.47118306159973145,-1.7544671297073364
1730553673769372400,8.607372314453125,0.2571372985839844,-0.6286246180534363,-1.7054413557052612
1730553673779397000,8.617397216796874,1.640183448791504,-1.0620375871658325,-1.580952763557434
1730553673789425700,8.62742578125,0.5448141098022461,-0.5314399003982544,-0.16666477918624878
1730553673799453200,8.637453125,-0.8304710388183594,-0.14761191606521606,0.3997321128845215
1730553673809481500,8.6474814453125,0.6130313873291016,-0.029793918132781982,0.09999233484268188
1730553673819476500,8.6574765625,0.5555295944213867,0.11797440052032471,0.30535760521888733
1730553673829501400,8.66750146484375,0.4804048538208008,-0.07497450709342957,0.4071826934814453
1730553673839552500,8.677552490234374,0.9433269500732422,-0.4621235728263855,-0.12886440753936768
1730553673849580000,8.687580078125,0.9049043655395508,-0.6959524154663086,-0.8816590905189514
1730553673859599000,8.69759912109375,0.7584066390991211,-0.8303812146186829,-1.1989628076553345
1730553673869625900,8.7076259765625,0.9034833908081055,-0.6782870292663574,-1.0242629051208496
1730553673879652000,8.717652099609374,1.0701494216918945,-0.340165913105011,-0.6225939393043518
1730553673889678800,8.727678955078124,0.7978506088256836,-0.19548524916172028,-0.35531121492385864
1730553673899727600,8.7377275390625,0.5440864562988281,-0.3339133858680725,-0.25117963552474976
1730553673909756400,8.74775634765625,0.6123180389404297,-0.5664930939674377,-0.3341801166534424
1730553673919792000,8.757792236328125,0.3447427749633789,-0.40662288665771484,0.10543936491012573
1730553673929821700,8.76782177734375,0.5507564544677734,-0.07343584299087524,0.3724069595336914
1730553673939836400,8.77783642578125,0.8697919845581055,0.02581411600112915,0.5641522407531738
1730553673949864400,8.787864501953125,0.9313039779663086,-0.05135315656661987,0.920648455619812
1730553673959905300,8.7979052734375,1.1441898345947266,-0.07724657654762268,1.0777809619903564
1730553673969934600,8.8079345703125,1.5155620574951172,-0.04904639720916748,1.0885385274887085
1730553673979954400,8.817954345703125,1.5131425857543945,-0.08031290769577026,0.8344203233718872
1730553673989983000,8.82798291015625,1.3679561614990234,-0.15656331181526184,0.7401799559593201
1730553673999999200,8.837999267578125,0.9209842681884766,-0.251705139875412,0.8186376094818115
1730553674010026200,8.848026123046875,0.4240121841430664,-0.29865673184394836,0.8084718585014343
1730553674020059600,8.8580595703125,0.1821146011352539,-0.15506446361541748,0.8400747776031494
1730553674030087400,8.86808740234375,0.24660682678222656,-0.08464699983596802,0.9585172533988953
1730553674040121300,8.878121337890626,0.41320228576660156,-0.08994102478027344,0.983558177947998
1730553674050149600,8.888149658203124,0.4421882629394531,-0.025967657566070557,1.0477977991104126
1730553674060140800,8.898140869140626,0.18303489685058594,-0.004063010215759277,1.1865675449371338
1730553674070165200,8.908165283203125,-0.16541290283203125,0.0029105544090270996,1.1135609149932861
1730553674080234000,8.91823388671875,-0.18474292755126953,-0.06066793203353882,0.9155585169792175
1730553674090263000,8.928262939453125,0.07952117919921875,-0.14357849955558777,0.6119996905326843
1730553674100278300,8.9382783203125,-0.02492046356201172,-0.11765950918197632,0.48222190141677856
1730553674110305800,8.948305908203125,-0.3176841735839844,-0.08260101079940796,0.6851067543029785
1730553674120336600,8.958336669921875,-0.5449104309082031,-0.08020716905593872,0.774131178855896
1730553674130364700,8.96836474609375,-0.7066965103149414,-0.09922945499420166,0.8606957197189331
1730553674140375600,8.97837548828125,-0.7102222442626953,-0.04093670845031738,1.1835124492645264
1730553674150401800,8.98840185546875,-0.15681743621826172,0.13886284828186035,2.641651153564453
1730553674160440300,8.9984404296875,0.771479606628418,0.6721300482749939,3.0691442489624023
1730553674170467800,9.0084677734375,0.5967121124267578,0.6393516063690186,1.7885745763778687
1730553674180481000,9.01848095703125,-0.13970947265625,0.20431089401245117,0.8927282094955444
1730553674190507300,9.02850732421875,-0.5572338104248047,0.14425063133239746,0.4276864230632782
1730553674200559900,9.038559814453125,-0.7712240219116211,0.2164556384086609,0.21037933230400085
1730553674210588700,9.048588623046875,-0.7629337310791016,0.11333358287811279,0.2701898217201233
1730553674220614000,9.05861376953125,-0.2314586639404297,-0.05482330918312073,0.3901711106300354
1730553674230642200,9.06864208984375,1.9024181365966797,-0.39325061440467834,0.41985559463500977
1730553674240670500,9.07867041015625,1.3512887954711914,-0.19761088490486145,0.3934234082698822
1730553674250699000,9.088698974609375,0.031284332275390625,-0.08233404159545898,0.44600528478622437
1730553674260731400,9.0987314453125,-0.26479244232177734,-0.047823578119277954,0.4413619637489319
1730553674270760200,9.10876025390625,-1.0213956832885742,0.04098546504974365,-0.1769508719444275
1730553674280799500,9.118799560546876,-1.4373903274536133,-0.0037130117416381836,-0.3402751088142395
1730553674290829300,9.128829345703124,-1.2725801467895508,0.09185907244682312,-0.03637107461690903
1730553674300830500,9.13883056640625,-1.1063823699951172,0.24491432309150696,0.1179414838552475
1730553674310857500,9.148857421875,-0.9767894744873047,0.16957002878189087,0.010533273220062256
1730553674320882200,9.158882080078126,-0.6541576385498047,0.08925354480743408,-0.08622373640537262
1730553674330909000,9.168908935546876,-0.2604665756225586,0.13145890831947327,-0.14095529913902283
1730553674340964600,9.178964599609374,0.5820388793945312,-0.08532177656888962,0.08439967036247253
1730553674350994200,9.188994140625,1.5068731307983398,-0.26383477449417114,0.20604589581489563
1730553674361020200,9.199020263671875,0.14563655853271484,0.003137335181236267,-0.3877381682395935
1730553674371049500,9.209049560546875,-0.45929431915283203,0.1457478553056717,-0.5269947052001953
1730553674381079000,9.2190791015625,-0.2836952209472656,0.23493434488773346,-0.002794262021780014
1730553674391108400,9.2291083984375,-0.18491744995117188,0.20758648216724396,0.11245445162057877
1730553674401109800,9.23910986328125,-0.26291847229003906,0.10069452226161957,0.030708633363246918
1730553674411136300,9.24913623046875,-0.3809194564819336,0.14150439202785492,0.03201216459274292
1730553674421164800,9.259164794921874,-0.4266691207885742,0.10707880556583405,0.16632996499538422
1730553674431191300,9.26919140625,-0.28368186950683594,-0.04256719350814819,0.31690987944602966
1730553674441238500,9.279238525390625,-0.1916790008544922,0.021370619535446167,0.22419948875904083
1730553674451267300,9.289267333984375,-0.07645988464355469,0.19632601737976074,0.07421837747097015
1730553674461274400,9.2992744140625,0.031032562255859375,0.22453337907791138,0.03414687514305115
1730553674471300900,9.30930078125,0.05932807922363281,0.16435348987579346,-0.08288595825433731
1730553674481359600,9.319359619140625,0.06133270263671875,0.0659172534942627,-0.1689317375421524
1730553674491389400,9.329389404296874,0.10167980194091797,-0.024030223488807678,-0.2119966745376587
1730553674501399800,9.33939990234375,0.12051010131835938,-0.07933394610881805,-0.35891836881637573
1730553674511427600,9.349427490234374,0.1297893524169922,-0.13803887367248535,-0.44988954067230225
1730553674521468400,9.359468505859375,0.15582656860351562,-0.19069305062294006,-0.31055745482444763
1730553674531497500,9.36949755859375,0.08630847930908203,-0.11397044360637665,-0.190701425075531
1730553674541522400,9.3795224609375,0.02659130096435547,-0.08736105263233185,-0.1171368658542633
1730553674551551200,9.38955126953125,0.024382591247558594,-0.059773027896881104,-0.058117687702178955
1730553674561578800,9.399578857421876,0.05564308166503906,-0.0215950608253479,-0.023107662796974182
1730553674571607300,9.409607177734374,0.1370840072631836,0.0668158233165741,-0.009854204952716827
1730553674581605400,9.41960546875,0.08702850341796875,0.08688187599182129,-0.037285879254341125
1730553674591631000,9.429631103515625,-0.03932476043701172,0.02620968222618103,-0.056435614824295044
1730553674601689900,9.43968994140625,-0.1128692626953125,0.08187302947044373,-0.08977518230676651
1730553674611719000,9.449718994140625,-0.13379859924316406,0.12602761387825012,-0.09779471904039383
1730553674621720300,9.45972021484375,-0.09506797790527344,0.09480014443397522,-0.015129894018173218
1730553674631746300,9.469746337890625,-0.013461112976074219,0.09426194429397583,0.08156190812587738
1730553674641808400,9.479808349609375,0.10862255096435547,0.11775568127632141,0.1568680852651596
1730553674651838200,9.489838134765625,0.0752115249633789,0.058173567056655884,0.15747204422950745
1730553674661869000,9.499869140625,-0.15875530242919922,0.016794681549072266,0.2465929538011551
1730553674671899000,9.50989892578125,-0.3913278579711914,0.0670439600944519,0.17082278430461884
1730553674681886500,9.519886474609375,-0.36106014251708984,0.02841097116470337,0.003243038896471262
1730553674691912000,9.529911865234375,-0.17594528198242188,0.014465957880020142,-0.06319157034158707
1730553674701943800,9.53994384765625,-0.059845924377441406,-0.004427820444107056,-0.026738163083791733
1730553674711970000,9.549969970703126,-0.06338024139404297,-0.031995028257369995,0.021315138787031174
1730553674722032000,9.5600322265625,-0.10687065124511719,-0.05963781476020813,0.08392975479364395
1730553674732062000,9.57006201171875,0.07412052154541016,-0.12617117166519165,0.0508827343583107
1730553674742072300,9.580072265625,0.2003326416015625,-0.15749531984329224,-0.035583119839429855
1730553674752100000,9.59010009765625,0.11961650848388672,-0.13677731156349182,-0.10776492953300476
1730553674762102800,9.600102783203125,0.014376640319824219,-0.07758823037147522,-0.08042901754379272
1730553674772128000,9.6101279296875,-0.08208751678466797,-0.025593727827072144,-0.003693878650665283
1730553674782177500,9.620177490234376,-0.14170551300048828,0.004248380661010742,0.03216185048222542
1730553674792205300,9.630205322265626,-0.19104671478271484,0.027455925941467285,0.05508113652467728
1730553674802225400,9.640225341796874,-0.25147533416748047,0.060303956270217896,0.08180456608533859
1730553674812252400,9.65025244140625,-0.2026357650756836,0.04296159744262695,0.09026196599006653
1730553674822288400,9.660288330078124,-0.138153076171875,0.014910280704498291,0.16129586100578308
1730553674832316400,9.67031640625,-0.11242389678955078,-0.010526984930038452,0.20403186976909637
1730553674842358300,9.680358154296876,-0.03999042510986328,-0.03139176964759827,0.13786053657531738
1730553674852387600,9.6903876953125,0.05248546600341797,-0.06016853451728821,0.03559225797653198
1730553674862403600,9.700403564453126,0.042197227478027344,-0.09703454375267029,-0.03335857763886452
1730553674872431400,9.710431396484376,0.013262748718261719,-0.07271531224250793,-0.06675361096858978
1730553674882452200,9.7204521484375,-0.024583816528320312,-0.06355726718902588,-0.11006249487400055
1730553674892479500,9.7304794921875,-0.005268096923828125,-0.07570499181747437,-0.09110698103904724
1730553674902512600,9.7405126953125,0.042029380798339844,-0.04593011736869812,-0.032465577125549316
1730553674912540400,9.75054052734375,-0.031538963317871094,-0.0035085082054138184,0.01179460994899273
1730553674922567400,9.7605673828125,-0.1509876251220703,0.04783180356025696,0.06100445240736008
1730553674932595200,9.77059521484375,-0.20017623901367188,0.005545288324356079,0.12261928617954254
1730553674942632000,9.7806318359375,-0.1261281967163086,0.006088942289352417,0.10082268714904785
1730553674952660700,9.79066064453125,-0.02510356903076172,0.03598800301551819,0.013211827725172043
1730553674962684400,9.800684326171876,-0.029417991638183594,0.026985198259353638,-0.011811263859272003
1730553674972712400,9.81071240234375,0.058200836181640625,-0.020629674196243286,-0.013419345021247864
1730553674982737400,9.8207373046875,0.14200687408447266,-0.06822165846824646,0.0031803883612155914
1730553674992765200,9.83076513671875,0.12314796447753906,-0.08010882139205933,0.020444247871637344
1730553675002803700,9.8408037109375,0.10223960876464844,-0.0581570565700531,0.009118471294641495
1730553675012832800,9.850832763671875,0.13113021850585938,-0.035853058099746704,-0.017814457416534424
1730553675022835000,9.8608349609375,0.09360980987548828,-0.08485656976699829,0.013345712795853615
1730553675032861200,9.870861083984375,-0.06810474395751953,0.008022457361221313,0.10710568726062775
1730553675042919700,9.880919677734376,-0.11877918243408203,0.11164593696594238,0.1387261301279068
1730553675052949200,9.89094921875,-0.12858963012695312,0.07974269986152649,0.15927082300186157
1730553675062960600,9.900960693359375,-0.1429452896118164,0.031422585248947144,0.12742289900779724
1730553675072988200,9.91098828125,-0.19472599029541016,-0.000424802303314209,0.02307535894215107
1730553675083025400,9.921025390625,-0.29982566833496094,-0.01765689253807068,-0.021191690117120743
1730553675093054000,9.931053955078125,-0.2689208984375,-0.05764093995094299,-0.03279547765851021
1730553675103078100,9.941078125,-0.29495906829833984,0.11845451593399048,0.07688374817371368
1730553675113106200,9.951106201171875,-0.4829845428466797,0.28909388184547424,-0.02637670561671257
1730553675123131400,9.96113134765625,-0.3313140869140625,-0.0029819905757904053,-0.05599276348948479
1730553675133159400,9.971159423828125,-0.12359333038330078,-0.07517451047897339,-0.021593652665615082
1730553675143196700,9.98119677734375,0.07574748992919922,0.04545837640762329,0.025843337178230286
1730553675153225500,9.9912255859375,0.24581241607666016,0.024898260831832886,0.013814188539981842
1730553675163256000,10.001256103515624,0.27885913848876953,-0.05164295434951782,-0.05131853371858597
1730553675173284900,10.011284912109375,0.24787521362304688,-0.030491769313812256,-0.05581948161125183
1730553675183306200,10.02130615234375,0.1445598602294922,-0.03922748565673828,0.04189355671405792
1730553675193334500,10.03133447265625,-0.032207489013671875,-0.04018580913543701,0.06465467810630798
1730553675203370800,10.041370849609375,-0.10460758209228516,-0.052690595388412476,0.009685017168521881
1730553675213399800,10.05139990234375,0.029224395751953125,-0.03531947731971741,-0.09771981835365295
1730553675223418600,10.061418701171876,0.08556175231933594,-0.03368595242500305,-0.13590732216835022
1730553675233446700,10.07144677734375,0.09402751922607422,-0.08390077948570251,-0.11957337707281113
1730553675243479600,10.0814794921875,0.07427692413330078,-0.015754222869873047,-0.03314429521560669
1730553675253508000,10.091508056640626,0.021895408630371094,-0.049784719944000244,0.0753212571144104
1730553675263532000,10.101531982421875,0.036167144775390625,-0.03641772270202637,0.039216816425323486
1730553675273560000,10.11156005859375,-0.008905410766601562,0.10341808199882507,0.0971003919839859
1730553675283564000,10.12156396484375,0.03822135925292969,0.07611867785453796,0.16569602489471436
1730553675293589500,10.131589599609375,0.0442047119140625,0.04577457904815674,-0.032932572066783905
1730553675303642000,10.14164208984375,-0.12889575958251953,0.14095374941825867,-0.024493098258972168
1730553675313670400,10.15167041015625,-0.11533737182617188,0.13893482089042664,-0.05836976319551468
1730553675323703800,10.161703857421875,-0.019553184509277344,0.04088810086250305,-0.050368741154670715
1730553675333732900,10.17173291015625,0.006384849548339844,-0.00016683340072631836,-0.016567088663578033
1730553675343724500,10.181724609375,0.010822296142578125,0.03687062859535217,-0.04039636254310608
1730553675353749800,10.191749755859375,-0.041159629821777344,0.0958428680896759,-0.04875478520989418
1730553675363809500,10.2018095703125,-0.1509838104248047,0.14420264959335327,-0.033508867025375366
1730553675373838300,10.21183837890625,-0.2683258056640625,0.14935755729675293,-0.05589825659990311
1730553675383867100,10.2218671875,-0.22834205627441406,-0.002915799617767334,-0.008942723274230957
1730553675393895700,10.231895751953125,-0.07845687866210938,0.03616788983345032,0.0093093141913414
1730553675403919600,10.241919677734375,-0.018350601196289062,-0.06953838467597961,-0.0352107509970665
1730553675413948000,10.251947998046875,0.16315460205078125,-0.04274144768714905,0.006578013300895691
1730553675423976000,10.261975830078125,0.14620113372802734,-0.1836635023355484,-0.04211243987083435
1730553675434004200,10.272004150390625,0.1578388214111328,-0.13984078168869019,-0.04867266118526459
1730553675444024300,10.2820244140625,0.3153657913208008,0.03634580969810486,-0.0375036895275116
1730553675454051800,10.2920517578125,0.2725839614868164,0.010592877864837646,-0.09035871922969818
1730553675464080400,10.302080322265626,0.08468437194824219,-0.020178109407424927,-0.019420132040977478
1730553675474108000,10.31210791015625,-0.031620025634765625,-0.037747979164123535,0.03511229157447815
1730553675484148700,10.322148681640625,-0.0846853256225586,-0.07894349098205566,0.05694994330406189
1730553675494177500,10.332177490234375,-0.10158824920654297,-0.0074277520179748535,-0.033480048179626465
1730553675504202500,10.342202392578125,-0.021697998046875,0.019975364208221436,-0.1293434202671051
1730553675514231000,10.35223095703125,0.05453968048095703,-0.04017680883407593,-0.14480061829090118
1730553675524253700,10.362253662109374,0.0024003982543945312,-0.05117538571357727,-0.005266278982162476
1730553675534281700,10.37228173828125,-0.06300163269042969,0.020012974739074707,0.192948117852211
1730553675544308000,10.382307861328124,-0.1698455810546875,0.03512600064277649,0.22859162092208862
1730553675554335700,10.392335693359374,-0.16200637817382812,-0.022653043270111084,0.18064559996128082
1730553675564375600,10.40237548828125,-0.1755352020263672,-0.03129380941390991,0.09075243771076202
1730553675574404600,10.412404541015626,-0.1865243911743164,-0.039377063512802124,0.03640833497047424
1730553675584428800,10.4224287109375,-0.17151165008544922,0.019626885652542114,-0.005806103348731995
1730553675594457300,10.432457275390625,-0.22750568389892578,0.11918652057647705,-0.01134595274925232
1730553675604479500,10.4424794921875,-0.22142696380615234,0.07308676838874817,0.0021497607231140137
1730553675614507300,10.45250732421875,-0.029458999633789062,-0.09371417760848999,-0.0014286339282989502
1730553675624531500,10.462531494140626,0.10747337341308594,-0.14766117930412292,0.006218701601028442
1730553675634559000,10.47255908203125,0.11036491394042969,-0.10470065474510193,-0.019580677151679993
1730553675644581600,10.48258154296875,0.07103252410888672,-0.02569565176963806,-0.04731486737728119
1730553675654608600,10.492608642578125,0.1196746826171875,-0.030447781085968018,-0.04337017238140106
1730553675664641500,10.5026416015625,0.14177417755126953,-0.08944562077522278,-0.046084076166152954
1730553675674669300,10.51266943359375,0.15669918060302734,-0.12012359499931335,-0.011689603328704834
1730553675684700200,10.5227001953125,0.11509513854980469,-0.06853592395782471,-0.05114644765853882
1730553675694728200,10.532728271484375,0.11203861236572266,0.01106870174407959,-0.10773642361164093
1730553675704759000,10.542759033203126,0.07849979400634766,0.013720393180847168,-0.12444378435611725
1730553675714787300,10.552787353515624,-0.02506732940673828,0.02133697271347046,-0.08127152919769287
1730553675724817000,10.56281689453125,-0.1151285171508789,0.03442305326461792,-0.006020188331604004
1730553675734845200,10.57284521484375,-0.15905094146728516,0.06619435548782349,0.07564860582351685
1730553675744858000,10.582858154296876,-0.11065292358398438,0.06837058067321777,0.07329994440078735
1730553675754885000,10.592885009765626,0.033255577087402344,0.04044139385223389,0.01020956039428711
1730553675764927700,10.602927734375,0.12994670867919922,-0.0005886554718017578,-0.010740667581558228
1730553675774956300,10.612956298828125,0.20395755767822266,-0.03985714912414551,-0.00406762957572937
1730553675784983800,10.62298388671875,0.13562679290771484,-0.019199252128601074,0.031055688858032227
1730553675795012000,10.63301220703125,-0.02797698974609375,0.02315908670425415,0.04564961791038513
1730553675805003000,10.6430029296875,-0.1394176483154297,0.027469515800476074,0.018467068672180176
1730553675815027500,10.65302734375,-0.2562131881713867,0.02839452028274536,0.014617979526519775
1730553675825093400,10.66309326171875,-0.3312406539916992,0.003578007221221924,0.06651070713996887
1730553675835122000,10.673121826171876,-0.3299274444580078,-0.05298888683319092,0.12642398476600647
1730553675845147000,10.68314697265625,-0.20883941650390625,-0.07482075691223145,0.016053587198257446
1730553675855175200,10.693175048828126,-0.02644062042236328,-0.09279406070709229,-0.05075368285179138
1730553675865188600,10.703188720703125,0.04443931579589844,-0.10383135080337524,-0.06617525219917297
1730553675875215400,10.71321533203125,0.0929269790649414,-0.09827131032943726,-0.03387966752052307
1730553675885272800,10.72327294921875,0.15706920623779297,-0.07675957679748535,-0.059784919023513794
1730553675895302700,10.733302734375,0.11417007446289062,-0.08288627862930298,-0.11450815200805664
1730553675905323000,10.743322998046875,0.12392044067382812,-0.034098148345947266,-0.1870054006576538
1730553675915352000,10.75335205078125,0.008862495422363281,0.059365689754486084,-0.13304847478866577
1730553675925375000,10.763375,-0.08287811279296875,0.05840092897415161,-0.028650134801864624
1730553675935403500,10.773403564453124,-0.1235952377319336,0.06977027654647827,0.034954845905303955
1730553675945418800,10.783418701171875,-0.10724163055419922,0.07787513732910156,0.020481586456298828
1730553675955445800,10.79344580078125,-0.1409158706665039,0.08098393678665161,-0.02130502462387085
1730553675965485800,10.80348583984375,-0.18621253967285156,0.0989530086517334,0.03859663009643555
1730553675975514000,10.81351416015625,-0.13683605194091797,0.0770723819732666,-0.012851834297180176
1730553675985519400,10.823519287109375,0.02942657470703125,0.038380980491638184,-0.12065374851226807
1730553675995545600,10.833545654296875,0.11302471160888672,0.05117589235305786,-0.07872006297111511
1730553676005590300,10.84359033203125,0.028272628784179688,0.052184104919433594,-0.007934629917144775
1730553676015618300,10.853618408203126,-0.043143272399902344,-0.013827145099639893,-0.013165712356567383
1730553676025642000,10.86364208984375,0.07749652862548828,-0.04131835699081421,-0.0689058005809784
1730553676035669500,10.87366943359375,0.1538705825805664,0.003081023693084717,-0.03288260102272034
1730553676045698800,10.88369873046875,0.10670852661132812,0.07443314790725708,0.08652517199516296
1730553676055726300,10.893726318359375,0.08643054962158203,0.10929989814758301,0.17717894911766052
1730553676065722600,10.90372265625,0.052600860595703125,0.12058883905410767,0.1762479841709137
1730553676075747300,10.913747314453126,-0.03461170196533203,0.1468491554260254,0.20986449718475342
1730553676085812000,10.92381201171875,-0.10143566131591797,0.0788622498512268,0.14872482419013977
1730553676095840500,10.933840576171875,-0.19309043884277344,0.06331026554107666,0.11991238594055176
1730553676105866200,10.9438662109375,-0.18685340881347656,0.006188631057739258,-0.03024369478225708
1730553676115894500,10.95389453125,-0.10338401794433594,-0.08960580825805664,-0.128595232963562
1730553676125924400,10.96392431640625,0.11982917785644531,-0.10727578401565552,-0.2815918028354645
1730553676135952600,10.97395263671875,0.18623924255371094,-0.15640270709991455,-0.383882075548172
1730553676145980700,10.983980712890625,0.22806072235107422,-0.1888558268547058,-0.295590341091156
1730553676156009000,10.994009033203126,0.059767723083496094,0.01138991117477417,-0.17800173163414001
1730553676166027800,11.00402783203125,-0.19735050201416016,0.11307889223098755,0.07535165548324585
1730553676176055300,11.01405517578125,-0.2734098434448242,0.0795394778251648,0.11406826972961426
1730553676186086400,11.02408642578125,-0.24468421936035156,0.0954742431640625,0.1028931736946106
1730553676196114200,11.0341142578125,-0.2827472686767578,0.16092103719711304,-0.02948722243309021
1730553676206141000,11.044140869140625,-0.3018636703491211,0.13211125135421753,-0.10664981603622437
1730553676216168700,11.054168701171875,-0.32375240325927734,0.00011777877807617188,-0.2141500860452652
1730553676226204000,11.064203857421875,-0.23540115356445312,-0.015911579132080078,-0.2693095803260803
1730553676236232200,11.074232177734375,-0.21743392944335938,-0.05831533670425415,-0.11134806275367737
1730553676246249000,11.0842490234375,-0.21404647827148438,-0.08099567890167236,0.004599839448928833
1730553676256276000,11.09427587890625,-0.3235435485839844,0.10527235269546509,0.15388095378875732
1730553676266311400,11.1043115234375,-0.4050874710083008,0.3060232996940613,0.1894182562828064
1730553676276339500,11.11433935546875,-0.3014383316040039,0.2786455750465393,0.2871977388858795
1730553676286388200,11.12438818359375,-0.10271930694580078,0.15018701553344727,0.24930661916732788
1730553676296418600,11.13441845703125,0.005820274353027344,0.07373017072677612,0.13506931066513062
1730553676306417400,11.14441748046875,0.07982730865478516,0.027218163013458252,0.09465953707695007
1730553676316444400,11.1544443359375,0.08439922332763672,-0.12745100259780884,0.011088043451309204
1730553676326498300,11.164498291015626,0.04642295837402344,-0.22684460878372192,-0.06605096161365509
1730553676336528000,11.17452783203125,0.10081768035888672,-0.24809543788433075,-0.18828453123569489
1730553676346550500,11.184550537109375,-0.18253421783447266,-0.4361613392829895,-0.6987184286117554
1730553676356579600,11.19457958984375,-0.07471275329589844,-0.1581745445728302,-0.5261731147766113
1730553676366603500,11.204603515625,0.1188507080078125,0.4751930236816406,-0.00445595383644104
1730553676376632000,11.214632080078125,-0.3617219924926758,0.47659561038017273,0.17029818892478943
1730553676386659000,11.2246591796875,-0.5703449249267578,0.10137864947319031,0.155526265501976
1730553676396687400,11.234687255859376,-0.33273983001708984,0.1036192774772644,-0.0430140346288681
1730553676406725000,11.24472509765625,-0.44789981842041016,0.28838759660720825,-0.4191945791244507
1730553676416754400,11.25475439453125,-1.0419960021972656,0.1485970914363861,-0.8352004885673523
1730553676426771500,11.264771484375,-2.0106186866760254,-0.23615534603595734,-0.7832850217819214
1730553676436799500,11.274799560546874,-1.6325321197509766,-0.5391267538070679,-0.6497766375541687
1730553676446829600,11.28482958984375,-0.8385171890258789,-0.3517173230648041,-0.680565595626831
1730553676456857900,11.29485791015625,-0.09872055053710938,-0.0937182754278183,-0.24585115909576416
1730553676466897200,11.304897216796874,10.543668746948242,-0.3173602223396301,4.9553632736206055
1730553676476926500,11.314926513671875,3.5733871459960938,0.02688106894493103,2.0156989097595215
1730553676486937600,11.3249375,0.33635807037353516,0.26095637679100037,-0.5635719299316406
1730553676496965000,11.334965087890625,-0.23277664184570312,-0.2219064086675644,0.5351923108100891
1730553676506971000,11.344970947265624,-0.2481861114501953,0.33908069133758545,-0.03597688674926758
1730553676516996400,11.354996337890626,1.235264778137207,1.4283275604248047,-0.5820788145065308
1730553676527055000,11.36505517578125,0.9552783966064453,1.3271381855010986,-0.14957880973815918
1730553676537084000,11.375083984375,-0.4802227020263672,1.598585605621338,-0.11197572946548462
1730553676547112000,11.38511181640625,-1.1153364181518555,1.0776495933532715,0.4628502428531647
1730553676557140500,11.395140380859376,-0.751220703125,0.3851715624332428,0.6124709248542786
1730553676567160600,11.40516064453125,-0.5821514129638672,0.2681562304496765,0.32018154859542847
1730553676577188600,11.415188720703124,-0.583500862121582,0.3038007616996765,0.2863936424255371
1730553676587223600,11.4252236328125,-0.4920005798339844,0.470091313123703,0.30417150259017944
1730553676597252000,11.435252197265624,-0.2816123962402344,0.4713689088821411,0.24463745951652527
1730553676607283200,11.445283203125,0.042634010314941406,0.2301291823387146,0.0446087121963501
1730553676617312000,11.45531201171875,0.45200634002685547,-0.0652536004781723,-0.15310510993003845
1730553676627333600,11.465333740234374,0.5930900573730469,-0.18108341097831726,-0.021094709634780884
1730553676637361700,11.475361572265625,0.2730522155761719,-0.08272932469844818,0.2115558683872223
1730553676647389200,11.48538916015625,-0.21570968627929688,-0.1898089349269867,0.2897906005382538
1730553676657417200,11.495417236328125,-0.5433168411254883,-0.5805039405822754,0.20286518335342407
1730553676667448600,11.505448486328126,-0.3972949981689453,-0.757263720035553,0.13489414751529694
1730553676677476900,11.515476806640624,-0.22792339324951172,-0.634200930595398,0.12555864453315735
1730553676687477500,11.5254775390625,-0.19283390045166016,-0.5402805805206299,0.19575414061546326
1730553676697503200,11.535503173828126,0.1074066162109375,-0.4636882543563843,0.41533851623535156
1730553676707559200,11.54555908203125,0.6245880126953125,-0.2655002474784851,0.2192094475030899
1730553676717588000,11.555587890625,0.9282798767089844,-0.12266243994235992,-0.21561837196350098
1730553676727616300,11.5656162109375,0.6700525283813477,0.04323456808924675,-0.3328701853752136
1730553676737644800,11.575644775390625,0.4628324508666992,-0.02605847641825676,-0.18251816928386688
1730553676747654100,11.585654052734375,0.3111591339111328,-0.2017117142677307,0.02863418310880661
1730553676757681000,11.595680908203125,0.24114227294921875,-0.39052361249923706,0.08826638758182526
1730553676767691500,11.60569140625,0.40312957763671875,-0.36029350757598877,0.04924117773771286
1730553676777716500,11.615716552734375,0.4190025329589844,-0.01882634311914444,0.06783530861139297
1730553676787762400,11.625762451171875,0.2078399658203125,0.228634774684906,0.23469991981983185
1730553676797789700,11.635789794921875,0.03062152862548828,0.17126691341400146,0.3645206689834595
1730553676807829200,11.645829345703126,-0.06494426727294922,0.26971760392189026,-0.16670693457126617
1730553676817857800,11.65585791015625,-0.014581680297851562,0.24711237847805023,-0.5389931201934814
1730553676827880000,11.6658798828125,-0.09825515747070312,-0.006061621010303497,-0.4276328384876251
1730553676837908000,11.675907958984375,-0.1435098648071289,-0.16459545493125916,-0.36220794916152954
1730553676847947000,11.685947021484376,-0.1551685333251953,-0.22722956538200378,-0.2380383312702179
1730553676857976000,11.69597607421875,-0.10701370239257812,-0.31126487255096436,-0.012621767818927765
1730553676867996400,11.705996337890625,0.25411510467529297,-0.3292080760002136,0.09031736850738525
1730553676878024700,11.716024658203125,0.3969907760620117,-0.2949977517127991,0.18313294649124146
1730553676888039200,11.7260390625,0.17636871337890625,-0.11096581816673279,0.1250869184732437
1730553676898066000,11.73606591796875,0.07579994201660156,0.054927267134189606,0.027110669761896133
1730553676908102700,11.7461025390625,0.001750946044921875,0.05188843607902527,0.07791860401630402
1730553676918130400,11.75613037109375,-0.022034645080566406,-0.04276743531227112,0.15236151218414307
1730553676928158000,11.766157958984374,0.032952308654785156,-0.1592060923576355,0.12150213122367859
1730553676938185700,11.776185791015624,0.1880941390991211,-0.2093612253665924,0.06830289959907532
1730553676948194300,11.7861943359375,0.22824859619140625,-0.3043995201587677,0.048464640974998474
1730553676958220000,11.796219970703126,0.32596683502197266,-0.16458949446678162,-0.03936187922954559
1730553676968266200,11.806266357421874,0.5027036666870117,0.10049934685230255,-0.2958880662918091
1730553676978294000,11.8162939453125,0.47388172149658203,0.04622457176446915,-0.3533186912536621
1730553676988341500,11.826341552734375,0.21361160278320312,-0.3912043869495392,-0.3477711081504822
1730553676998371300,11.836371337890625,0.018716812133789062,-0.7555661797523499,-0.2553303837776184
1730553677008392000,11.846391845703126,0.025270462036132812,-0.7756308913230896,-0.07282239198684692
1730553677018420700,11.856420654296874,0.34732723236083984,-0.4598557949066162,0.1609402894973755
1730553677028441000,11.866441162109375,0.7087974548339844,-0.01079462468624115,0.2173076570034027
1730553677038469000,11.87646923828125,0.8965244293212891,-0.04624050855636597,0.2310182750225067
1730553677048507400,11.88650732421875,1.180680274963379,-0.25633877515792847,0.21044018864631653
1730553677058536400,11.896536376953126,0.963709831237793,-0.4082939028739929,-0.023303091526031494
1730553677068557300,11.906557373046875,0.38646984100341797,-0.6022579669952393,-0.1801484227180481
1730553677078585300,11.91658544921875,-0.3203544616699219,-0.6325584053993225,0.15919233858585358
1730553677088613600,11.926613525390625,-0.524383544921875,-0.20580577850341797,0.43961668014526367
1730553677098642000,11.936641845703125,-0.24076175689697266,-0.01691463217139244,0.5490353107452393
1730553677108673800,11.946673828125,-0.0740823745727539,0.012982605025172234,0.5208359956741333
1730553677118702600,11.95670263671875,-0.06250476837158203,0.20376820862293243,0.2777268886566162
1730553677128730000,11.966730224609375,-0.03821754455566406,0.26579245924949646,0.15838977694511414
1730553677138758700,11.976758544921875,0.18964290618896484,0.16171184182167053,0.20097459852695465
1730553677148782000,11.986781982421874,0.7707099914550781,0.030500710010528564,0.4470524787902832
1730553677158810000,11.99681005859375,1.0315532684326172,-0.34165632724761963,0.7309805154800415
1730553677168846600,12.0068466796875,0.8580484390258789,-0.6733341217041016,0.7233481407165527
1730553677178875400,12.01687548828125,0.2676868438720703,-0.6968480944633484,0.25526922941207886
1730553677188892700,12.026892578125,-0.37497520446777344,-0.6306107044219971,-0.214374840259552
1730553677198920400,12.03692041015625,-0.5712547302246094,-0.34648552536964417,-0.4103795886039734
1730553677208924000,12.046923828125,-0.29139232635498047,-0.22740547358989716,-0.48147621750831604
1730553677218949000,12.05694921875,0.18950557708740234,-0.06314174830913544,-0.3795727491378784
1730553677229009200,12.067009033203124,0.4637022018432617,0.4170497953891754,0.23452851176261902
1730553677239038000,12.077037841796875,0.6197710037231445,0.8456593155860901,0.6755998730659485
1730553677249063200,12.087063232421874,0.734288215637207,0.8998400568962097,0.8971247673034668
1730553677259091700,12.097091796875,0.8353281021118164,0.72185218334198,0.9257843494415283
1730553677269120800,12.107120849609375,0.787632942199707,0.3345416188240051,0.5573973655700684
1730553677279149000,12.117149169921875,0.8046360015869141,-0.20104533433914185,0.32220762968063354
1730553677289175800,12.12717578125,0.2178506851196289,-0.8616016507148743,0.3545002043247223
1730553677299204000,12.1372041015625,-0.5789699554443359,-1.281674861907959,0.5469987392425537
1730553677309222700,12.14722265625,-0.7829360961914062,-0.9585814476013184,0.43851274251937866
1730553677319250000,12.15725,-0.8726234436035156,-0.280261754989624,0.04349532723426819
1730553677329293600,12.16729345703125,-0.9882364273071289,0.298160582780838,-0.3193053603172302
1730553677339322600,12.177322509765625,-1.0886926651000977,0.7577405571937561,-0.37150031328201294
1730553677349342000,12.187342041015626,-0.6965360641479492,1.1380424499511719,-0.21192331612110138
