time,seconds_elapsed,z,y,x
1730553665305732900,0.14373291015625,0.00226362026296556,0.0015978495357558131,-0.003395430278033018
1730553665315759900,0.153759765625,0.0017310036346316338,0.0021304660476744175,-0.001797580742277205
1730553665325811700,0.163811767578125,0.0017310036346316338,0.0037283156998455524,-0.0012649642303586006
1730553665335838700,0.173838623046875,0.0011983871227130294,0.0026630824431777,-0.0007323477184399962
1730553665345871600,0.18387158203125,0.000665770610794425,0.0010652330238372087,-0.002862813649699092
1730553665355900400,0.193900390625,0.0011983871227130294,-0.0005991935613565147,-0.0007323477184399962
1730553665365928000,0.203927978515625,0.0011983871227130294,0.0015978495357558131,-0.00019973119196947664
1730553665375956200,0.213956298828125,0.000665770610794425,0.0037283156998455524,-0.001797580742277205
1730553665386007800,0.2240078125,0.004926702938973904,0.0010652330238372087,-0.00019973119196947664
1730553665396045600,0.234045654296875,0.00226362026296556,0.0005326165119186044,-0.001797580742277205
1730553665406030000,0.244030029296875,-0.0003994623839389533,0.0021304660476744175,-0.001797580742277205
1730553665416046300,0.25404638671875,0.0017310036346316338,0.0026630824431777,-0.001797580742277205
1730553665426105600,0.264105712890625,0.0011983871227130294,0.0015978495357558131,-0.0023301972541958094
1730553665436139300,0.27413916015625,0.0011983871227130294,0.0021304660476744175,-0.001797580742277205
1730553665446152000,0.28415185546875,-0.0003994623839389533,0.0037283156998455524,-0.001797580742277205
1730553665456177200,0.29417724609375,0.0011983871227130294,0.0037283156998455524,-0.0023301972541958094
1730553665466206000,0.3042060546875,0.0011983871227130294,0.0015978495357558131,-0.0007323477184399962
1730553665476232700,0.314232666015625,0.00226362026296556,0.0015978495357558131,-0.0007323477184399962
1730553665486242800,0.324242919921875,0.00226362026296556,0.0026630824431777,-0.001797580742277205
1730553665496263000,0.334262939453125,0.000665770610794425,0.0010652330238372087,-0.0023301972541958094
1730553665506318300,0.344318359375,0.000665770610794425,0.0005326165119186044,0.0003328853053972125
1730553665516352800,0.354352783203125,0.0011983871227130294,0.0026630824431777,-0.0007323477184399962
1730553665526381300,0.36438134765625,0.0017310036346316338,0.0037283156998455524,-0.0012649642303586006
1730553665536413400,0.374413330078125,0.0001331541279796511,0.0037283156998455524,-0.0023301972541958094
1730553665546432800,0.384432861328125,0.0011983871227130294,0.0015978495357558131,-0.0012649642303586006
1730553665556459500,0.39445947265625,0.0001331541279796511,0.0026630824431777,-0.0012649642303586006
1730553665566489000,0.404489013671875,0.0017310036346316338,0.0026630824431777,-0.002862813649699092
1730553665576517000,0.41451708984375,0.00226362026296556,0.0031956990715116262,-0.002862813649699092
1730553665586562800,0.424562744140625,-0.0003994623839389533,0.0037283156998455524,-0.003928046673536301
1730553665596597800,0.43459765625,0.0001331541279796511,0.0021304660476744175,-0.001797580742277205
1730553665606620400,0.444620361328125,0.000665770610794425,0.0021304660476744175,-0.0012649642303586006
1730553665616650200,0.454650146484375,-0.0003994623839389533,0.0031956990715116262,-0.003395430278033018
1730553665626662100,0.464662109375,0.000665770610794425,0.0031956990715116262,-0.003395430278033018
1730553665636684800,0.474684814453125,0.000665770610794425,0.0021304660476744175,-0.003395430278033018
1730553665646730000,0.48472998046875,0.0001331541279796511,0,-0.0012649642303586006
1730553665656755000,0.4947548828125,0.000665770610794425,0.0021304660476744175,-0.0012649642303586006
1730553665666763000,0.504762939453125,-0.0009320789249613881,0.0026630824431777,-0.0007323477184399962
1730553665676786400,0.514786376953125,0.000665770610794425,0.0021304660476744175,-0.0012649642303586006
1730553665686837200,0.524837158203125,0.0027962366584688425,0.0026630824431777,-0.0007323477184399962
1730553665696863500,0.534863525390625,0.0017310036346316338,0.0026630824431777,-0.001797580742277205
1730553665706892300,0.544892333984375,0.000665770610794425,0.0021304660476744175,-0.003395430278033018
1730553665716918800,0.554918701171875,0.0011983871227130294,0.0026630824431777,-0.0012649642303586006
1730553665726954000,0.5649541015625,0.0011983871227130294,0.0026630824431777,-0.003395430278033018
1730553665736981200,0.574981201171875,0.0011983871227130294,0.0021304660476744175,-0.004460663069039583
1730553665746984200,0.584984130859375,0.0017310036346316338,0.0031956990715116262,-0.002862813649699092
1730553665757009200,0.595009033203125,0.0011983871227130294,0.0026630824431777,-0.0007323477184399962
1730553665767067600,0.605067626953125,-0.0003994623839389533,0.0021304660476744175,-0.001797580742277205
1730553665777096000,0.615095947265625,0.0011983871227130294,0.0015978495357558131,-0.0012649642303586006
1730553665787120000,0.6251201171875,0.0017310036346316338,0.0037283156998455524,-0.0023301972541958094
1730553665797148000,0.63514794921875,0.000665770610794425,0.0031956990715116262,-0.003395430278033018
1730553665807180000,0.645179931640625,0.00226362026296556,0.0021304660476744175,-0.0023301972541958094
1730553665817208000,0.6552080078125,0.0033288532868027687,0.0010652330238372087,-0.0012649642303586006
1730553665827214600,0.665214599609375,0.0011983871227130294,0.0021304660476744175,-0.00019973119196947664
1730553665837240800,0.67524072265625,-0.0003994623839389533,0.0026630824431777,-0.001797580742277205
1730553665847287300,0.685287353515625,0.0001331541279796511,0.0015978495357558131,-0.001797580742277205
1730553665857315600,0.695315673828125,-0.0003994623839389533,0.0015978495357558131,-0.0007323477184399962
1730553665867338800,0.7053388671875,0.0017310036346316338,0.0031956990715116262,-0.0023301972541958094
1730553665877366500,0.715366455078125,0.0017310036346316338,0.0005326165119186044,-0.001797580742277205
1730553665887396600,0.725396728515625,-0.0003994623839389533,0,-0.0023301972541958094
1730553665897424600,0.735424560546875,0.0017310036346316338,0.0015978495357558131,-0.001797580742277205
1730553665907451100,0.745451171875,0.0017310036346316338,0.0021304660476744175,-0.0012649642303586006
1730553665917479000,0.75547900390625,0.000665770610794425,0.0010652330238372087,-0.00019973119196947664
1730553665927519500,0.76551953125,0.004394086077809334,0.0015978495357558131,-0.0012649642303586006
1730553665937548500,0.775548583984375,0.000665770610794425,0.0010652330238372087,-0.001797580742277205
1730553665947564500,0.785564453125,0.0001331541279796511,0.0021304660476744175,-0.0023301972541958094
1730553665957592000,0.795592041015625,0.000665770610794425,0.0010652330238372087,-0.001797580742277205
1730553665967622700,0.80562255859375,0.0027962366584688425,0.0026630824431777,-0.001797580742277205
1730553665977650700,0.815650634765625,0.00226362026296556,0.0015978495357558131,-0.001797580742277205
1730553665987669200,0.825669189453125,0.0011983871227130294,0.0021304660476744175,-0.0012649642303586006
1730553665997696300,0.8356962890625,0.0011983871227130294,0.0015978495357558131,0.0008655018173158169
1730553666007712500,0.84571240234375,0.0033288532868027687,0.0026630824431777,-0.0007323477184399962
1730553666017738500,0.855738525390625,0.00226362026296556,0.0021304660476744175,-0.0012649642303586006
1730553666027779800,0.86577978515625,0.000665770610794425,0.0015978495357558131,-0.0012649642303586006
1730553666037807400,0.875807373046875,0.0011983871227130294,0.0010652330238372087,0.0003328853053972125
1730553666047842800,0.8858427734375,0.0001331541279796511,0.0026630824431777,-0.0007323477184399962
1730553666057871000,0.89587109375,0.0017310036346316338,0.0026630824431777,-0.0007323477184399962
1730553666067902500,0.90590234375,0.0001331541279796511,0.0021304660476744175,-0.0007323477184399962
1730553666077931300,0.91593115234375,0.0001331541279796511,0.0021304660476744175,0.0003328853053972125
1730553666087955200,0.925955078125,0.0017310036346316338,0.0015978495357558131,-0.0012649642303586006
1730553666097983500,0.9359833984375,0.0011983871227130294,0.0021304660476744175,-0.0007323477184399962
1730553666108014000,0.94601416015625,0.0011983871227130294,0.0031956990715116262,-0.002862813649699092
1730553666118042600,0.956042724609375,0.000665770610794425,0.0026630824431777,-0.0023301972541958094
1730553666128053200,0.96605322265625,0.0011983871227130294,0.0015978495357558131,-0.001797580742277205
1730553666138079700,0.976079833984375,0.0011983871227130294,0.0010652330238372087,-0.002862813649699092
1730553666148123400,0.986123291015625,0.0017310036346316338,0.0021304660476744175,-0.0023301972541958094
1730553666158151700,0.996151611328125,0.0001331541279796511,0.0015978495357558131,-0.00019973119196947664
1730553666168173800,1.006173828125,0.0011983871227130294,0.0021304660476744175,-0.00019973119196947664
1730553666178201600,1.01620166015625,0.000665770610794425,0.0021304660476744175,-0.0023301972541958094
1730553666188237800,1.02623779296875,0.0011983871227130294,0.0026630824431777,-0.0023301972541958094
1730553666198266400,1.036266357421875,0.0017310036346316338,0.0005326165119186044,-0.00019973119196947664
1730553666208297500,1.04629736328125,0.0017310036346316338,0,-0.0012649642303586006
1730553666218326300,1.056326171875,-0.0003994623839389533,0.0026630824431777,0.0003328853053972125
1730553666228340200,1.06634033203125,0.0001331541279796511,0.0015978495357558131,-0.0012649642303586006
1730553666238367500,1.076367431640625,0.000665770610794425,0.0021304660476744175,-0.001797580742277205
1730553666248403000,1.08640283203125,0.0001331541279796511,0.004260932095348835,-0.0007323477184399962
1730553666258431000,1.096430908203125,0.0001331541279796511,0.0021304660476744175,-0.0023301972541958094
1730553666268433200,1.10643310546875,0.000665770610794425,0.0010652330238372087,-0.002862813649699092
1730553666278458600,1.116458740234375,0.000665770610794425,0.0010652330238372087,-0.00019973119196947664
1730553666288511500,1.126511474609375,0.000665770610794425,0.0021304660476744175,-0.0012649642303586006
1730553666298539800,1.136539794921875,0.0011983871227130294,0.0021304660476744175,-0.003395430278033018
1730553666308578800,1.146578857421875,-0.0009320789249613881,0.0026630824431777,-0.002862813649699092
1730553666318608100,1.156608154296875,0.0001331541279796511,0.0015978495357558131,-0.001797580742277205
1730553666328612400,1.1666123046875,0.0011983871227130294,0.0021304660476744175,-0.001797580742277205
1730553666338639000,1.17663916015625,0.0001331541279796511,0.0037283156998455524,-0.002862813649699092
1730553666348682500,1.1866826171875,0.000665770610794425,0.0026630824431777,-0.001797580742277205
1730553666358711000,1.1967109375,-0.0009320789249613881,0.0037283156998455524,-0.00019973119196947664
1730553666368741400,1.206741455078125,0.0001331541279796511,0.0015978495357558131,-0.0012649642303586006
1730553666378770000,1.21677001953125,0.0033288532868027687,0.0015978495357558131,-0.001797580742277205
1730553666388791300,1.226791259765625,0.00226362026296556,0.0031956990715116262,-0.0007323477184399962
1730553666398819300,1.2368193359375,0.0011983871227130294,0.0021304660476744175,-0.0023301972541958094
1730553666408859000,1.24685888671875,0.0001331541279796511,0.0015978495357558131,-0.0023301972541958094
1730553666418888000,1.256887939453125,0.000665770610794425,0.0031956990715116262,-0.001797580742277205
1730553666428902100,1.266902099609375,0.0017310036346316338,0.0021304660476744175,-0.001797580742277205
1730553666438930000,1.276929931640625,0.0011983871227130294,0.0015978495357558131,-0.0012649642303586006
1730553666448943900,1.28694384765625,0.0001331541279796511,0.0021304660476744175,-0.00019973119196947664
1730553666458970000,1.29697021484375,0.0011983871227130294,0.0037283156998455524,-0.001797580742277205
1730553666469023000,1.30702294921875,0.0027962366584688425,0.0010652330238372087,-0.0012649642303586006
1730553666479052000,1.317052001953125,0.00226362026296556,0.0010652330238372087,-0.0007323477184399962
1730553666489054500,1.327054443359375,0.0017310036346316338,0.0015978495357558131,-0.0012649642303586006
1730553666499080700,1.337080810546875,0.0001331541279796511,0.0010652330238372087,-0.0012649642303586006
1730553666509142300,1.347142333984375,0.0011983871227130294,0.0015978495357558131,-0.0007323477184399962
1730553666519172000,1.357172119140625,0.0011983871227130294,0.0026630824431777,-0.002862813649699092
1730553666529150000,1.36714990234375,0.0011983871227130294,0.0010652330238372087,-0.002862813649699092
1730553666539174700,1.377174560546875,0.0001331541279796511,0.0010652330238372087,-0.0023301972541958094
1730553666549241300,1.387241455078125,0.0011983871227130294,0.0010652330238372087,-0.0023301972541958094
1730553666559270400,1.3972705078125,0.0011983871227130294,0.0031956990715116262,-0.002862813649699092
1730553666569299000,1.407298828125,0.000665770610794425,0.0026630824431777,-0.0007323477184399962
1730553666579327700,1.41732763671875,0.000665770610794425,0.0031956990715116262,-0.001797580742277205
1730553666589349400,1.427349365234375,0.0011983871227130294,0.0026630824431777,-0.0023301972541958094
1730553666599377700,1.437377685546875,0.0017310036346316338,0.0015978495357558131,-0.0023301972541958094
1730553666609404400,1.447404296875,0.0011983871227130294,0.0005326165119186044,-0.003395430278033018
1730553666619432200,1.45743212890625,0.0001331541279796511,0.0005326165119186044,-0.0007323477184399962
1730553666629461500,1.46746142578125,0.0011983871227130294,0.0010652330238372087,-0.0012649642303586006
1730553666639489800,1.47748974609375,0.000665770610794425,0.0015978495357558131,-0.0023301972541958094
1730553666649513700,1.487513671875,0.000665770610794425,0.0015978495357558131,-0.002862813649699092
1730553666659541500,1.49754150390625,0.0011983871227130294,0.0015978495357558131,-0.002862813649699092
1730553666669578200,1.507578125,0.0011983871227130294,0.0021304660476744175,-0.0012649642303586006
1730553666679606800,1.517606689453125,0.0011983871227130294,0.0031956990715116262,-0.0007323477184399962
1730553666689630500,1.52763037109375,0.000665770610794425,0.0021304660476744175,-0.001797580742277205
1730553666699658500,1.537658447265625,0.0001331541279796511,0.0026630824431777,-0.002862813649699092
1730553666709653200,1.5476533203125,0.0017310036346316338,0.0021304660476744175,-0.0023301972541958094
1730553666719678000,1.557677978515625,0.00226362026296556,0,-0.0012649642303586006
1730553666729730800,1.567730712890625,0.0017310036346316338,0.0026630824431777,-0.0023301972541958094
1730553666739758600,1.577758544921875,0.0011983871227130294,0.0031956990715116262,-0.002862813649699092
1730553666749814300,1.587814208984375,0.0017310036346316338,0.0021304660476744175,-0.0023301972541958094
1730553666759844900,1.597844970703125,0.00226362026296556,0.0021304660476744175,-0.001797580742277205
1730553666769846800,1.6078466796875,0.0017310036346316338,0.0021304660476744175,-0.003395430278033018
1730553666779874600,1.61787451171875,0.0017310036346316338,0.0026630824431777,-0.001797580742277205
1730553666789906200,1.62790625,0.0017310036346316338,0.0031956990715116262,-0.0023301972541958094
1730553666799934200,1.637934326171875,0.0017310036346316338,0.0026630824431777,-0.001797580742277205
1730553666809961200,1.647961181640625,0.00226362026296556,0.0026630824431777,-0.0007323477184399962
1730553666819989000,1.657989013671875,0.0011983871227130294,0.0021304660476744175,-0.0023301972541958094
1730553666830010000,1.668010009765625,-0.0014646954368799925,0.0021304660476744175,-0.00019973119196947664
1730553666840037000,1.678037109375,0.0001331541279796511,0.0021304660476744175,-0.00019973119196947664
1730553666850083800,1.688083740234375,0.0001331541279796511,0.0021304660476744175,-0.0007323477184399962
1730553666860113200,1.698113037109375,0.0011983871227130294,0.0026630824431777,-0.0012649642303586006
1730553666870143000,1.70814306640625,0.0033288532868027687,0.0021304660476744175,-0.0012649642303586006
1730553666880172300,1.71817236328125,0.0011983871227130294,0.0015978495357558131,-0.0007323477184399962
1730553666890192600,1.728192626953125,0.000665770610794425,0.0026630824431777,-0.002862813649699092
1730553666900221000,1.738220947265625,0.00226362026296556,0.0026630824431777,-0.001797580742277205
1730553666910261200,1.74826123046875,0.000665770610794425,0.0021304660476744175,-0.00019973119196947664
1730553666920290800,1.758290771484375,-0.0009320789249613881,0.0015978495357558131,-0.0007323477184399962
1730553666930307300,1.768307373046875,0.000665770610794425,0.0010652330238372087,-0.0023301972541958094
1730553666940335600,1.778335693359375,0.0027962366584688425,0.0015978495357558131,-0.0012649642303586006
1730553666950365400,1.788365478515625,0.00226362026296556,0.0037283156998455524,-0.0007323477184399962
1730553666960393700,1.798393798828125,-0.0003994623839389533,0.0031956990715116262,-0.0012649642303586006
1730553666970391600,1.8083916015625,-0.0009320789249613881,0.0015978495357558131,0.0008655018173158169
1730553666980416800,1.818416748046875,0.0017310036346316338,0.0026630824431777,-0.0007323477184399962
1730553666990472200,1.82847216796875,0.00226362026296556,0.0015978495357558131,-0.0023301972541958094
1730553667000500500,1.83850048828125,0.0011983871227130294,0.0010652330238372087,-0.002862813649699092
1730553667010535400,1.848535400390625,0.0001331541279796511,0.0021304660476744175,-0.0012649642303586006
1730553667020564200,1.858564208984375,0.0017310036346316338,0.0037283156998455524,-0.0012649642303586006
1730553667030584600,1.86858447265625,0.0017310036346316338,0.0021304660476744175,-0.003928046673536301
1730553667040612600,1.878612548828125,0.0011983871227130294,0.0015978495357558131,-0.002862813649699092
1730553667050642700,1.888642578125,0.0001331541279796511,0.0026630824431777,-0.001797580742277205
1730553667060671000,1.8986708984375,0.00226362026296556,0.0021304660476744175,-0.001797580742277205
1730553667070700800,1.90870068359375,0.000665770610794425,0.0021304660476744175,-0.0007323477184399962
1730553667080729000,1.91872900390625,0.0011983871227130294,0.0021304660476744175,-0.003395430278033018
1730553667090725600,1.9287255859375,0.0001331541279796511,0.0015978495357558131,-0.001797580742277205
1730553667100750800,1.938750732421875,0.000665770610794425,0.0015978495357558131,-0.0012649642303586006
1730553667110815200,1.948815185546875,0.0011983871227130294,0.0010652330238372087,-0.0012649642303586006
1730553667120844300,1.95884423828125,0.00226362026296556,0.0026630824431777,-0.001797580742277205
1730553667130870300,1.968870361328125,0.0011983871227130294,0.0010652330238372087,-0.001797580742277205
1730553667140899000,1.978899169921875,0.0011983871227130294,0.0005326165119186044,-0.0007323477184399962
1730553667150924500,1.988924560546875,0.0011983871227130294,0.0010652330238372087,0.0003328853053972125
1730553667160953000,1.998953125,0.0011983871227130294,0.0015978495357558131,-0.001797580742277205
1730553667170975000,2.00897509765625,0.0017310036346316338,0.0026630824431777,-0.002862813649699092
1730553667181002800,2.019002685546875,0.0027962366584688425,0.0010652330238372087,-0.0023301972541958094
1730553667191033600,2.02903369140625,0.0001331541279796511,0.0026630824431777,-0.001797580742277205
1730553667201062000,2.039061767578125,0.000665770610794425,0.0031956990715116262,-0.0023301972541958094
1730553667211097300,2.049097412109375,0.000665770610794425,0.0015978495357558131,-0.001797580742277205
1730553667221126100,2.059126220703125,0.0011983871227130294,0.0015978495357558131,-0.002862813649699092
1730553667231115000,2.069114990234375,0.00226362026296556,0.0015978495357558131,-0.0012649642303586006
1730553667241140000,2.079139892578125,0.0011983871227130294,0.0021304660476744175,-0.0007323477184399962
1730553667251197000,2.089197021484375,0.000665770610794425,0.0021304660476744175,-0.001797580742277205
1730553667261225000,2.099224853515625,0.0011983871227130294,0,-0.0023301972541958094
1730553667271256000,2.109256103515625,0.00226362026296556,0.0010652330238372087,-0.0023301972541958094
1730553667281284400,2.119284423828125,0.00226362026296556,0.0026630824431777,-0.0012649642303586006
1730553667291307300,2.129307373046875,0.000665770610794425,0.0031956990715116262,-0.001797580742277205
1730553667301335000,2.1393349609375,0.0011983871227130294,0.0015978495357558131,-0.0007323477184399962
1730553667311356400,2.1493564453125,0.000665770610794425,0.0010652330238372087,-0.002862813649699092
1730553667321383400,2.159383544921875,0.0011983871227130294,0.0021304660476744175,-0.001797580742277205
1730553667331410400,2.169410400390625,0.0027962366584688425,0.004260932095348835,-0.0023301972541958094
1730553667341437400,2.1794375,0.000665770610794425,0.0005326165119186044,-0.0023301972541958094
1730553667351464400,2.18946435546875,0.0011983871227130294,0.0021304660476744175,-0.0007323477184399962
1730553667361491500,2.199491455078125,0.0017310036346316338,0.0026630824431777,-0.0012649642303586006
1730553667371516700,2.2095166015625,-0.0003994623839389533,0.0031956990715116262,-0.0023301972541958094
1730553667381543400,2.21954345703125,0.0011983871227130294,0.0021304660476744175,-0.0023301972541958094
1730553667391575300,2.2295751953125,0.0017310036346316338,0.0026630824431777,-0.002862813649699092
1730553667401602800,2.239602783203125,0.00226362026296556,0.0015978495357558131,-0.0007323477184399962
1730553667411625000,2.249625,0.0038614696823060513,0.0026630824431777,-0.001797580742277205
1730553667421652000,2.25965185546875,0.0017310036346316338,0.0037283156998455524,-0.001797580742277205
1730553667431688400,2.2696884765625,0.00226362026296556,0.0031956990715116262,-0.001797580742277205
1730553667441716500,2.279716552734375,0.0011983871227130294,0.0021304660476744175,-0.0023301972541958094
1730553667451739000,2.28973876953125,0.0027962366584688425,0.0031956990715116262,-0.0023301972541958094
1730553667461766400,2.299766357421875,0.0033288532868027687,0.0026630824431777,-0.003395430278033018
1730553667471865600,2.309865478515625,0.0017310036346316338,0.0021304660476744175,-0.002862813649699092
1730553667481900000,2.319900146484375,0.0033288532868027687,0.0026630824431777,-0.0007323477184399962
1730553667491867000,2.329866943359375,0.00226362026296556,0.0021304660476744175,-0.001797580742277205
1730553667501894700,2.339894775390625,0.0001331541279796511,0.0015978495357558131,-0.003928046673536301
1730553667511914800,2.349914794921875,-0.0003994623839389533,0.0010652330238372087,-0.0007323477184399962
1730553667521941800,2.359941650390625,0.0001331541279796511,0.0015978495357558131,0.0003328853053972125
1730553667531963600,2.369963623046875,0.0011983871227130294,0.0021304660476744175,-0.0023301972541958094
1730553667541990100,2.379990234375,0.0017310036346316338,0.0021304660476744175,-0.0012649642303586006
1730553667552024300,2.3900244140625,0.0011983871227130294,0.0021304660476744175,-0.00019973119196947664
1730553667562051600,2.400051513671875,0.000665770610794425,0.0010652330238372087,-0.0012649642303586006
1730553667572091000,2.4100908203125,0.000665770610794425,0.0015978495357558131,-0.0012649642303586006
1730553667582119400,2.420119384765625,0.0017310036346316338,0.0026630824431777,-0.003395430278033018
1730553667592147700,2.430147705078125,0.0017310036346316338,0.0026630824431777,-0.0012649642303586006
1730553667602176300,2.44017626953125,0.0011983871227130294,0.0026630824431777,-0.0007323477184399962
1730553667612205800,2.450205810546875,0.0033288532868027687,0.0021304660476744175,-0.0007323477184399962
1730553667622234400,2.460234375,0.0017310036346316338,0.0031956990715116262,-0.0023301972541958094
1730553667632260900,2.4702607421875,0.000665770610794425,0.0031956990715116262,-0.001797580742277205
1730553667642289200,2.4802890625,0.0011983871227130294,0.0026630824431777,-0.00019973119196947664
1730553667652317000,2.49031689453125,0.0011983871227130294,0.0037283156998455524,-0.00019973119196947664
1730553667662345200,2.50034521484375,0.000665770610794425,0.0026630824431777,-0.001797580742277205
1730553667672360000,2.51035986328125,0.0011983871227130294,0.0026630824431777,-0.001797580742277205
1730553667682387000,2.520386962890625,0.0011983871227130294,0.0026630824431777,-0.001797580742277205
1730553667692429800,2.530429931640625,0.0011983871227130294,0.0026630824431777,-0.002862813649699092
1730553667702458400,2.540458251953125,0.0017310036346316338,0.0037283156998455524,-0.001797580742277205
1730553667712486400,2.550486328125,0.0017310036346316338,0.004260932095348835,-0.002862813649699092
1730553667722514700,2.5605146484375,-0.0003994623839389533,0.0021304660476744175,-0.0007323477184399962
1730553667732546600,2.570546630859375,0.0001331541279796511,0.0021304660476744175,-0.0012649642303586006
1730553667742575400,2.580575439453125,0.00226362026296556,0.0021304660476744175,-0.0023301972541958094
1730553667752592400,2.59059228515625,0.000665770610794425,0.0021304660476744175,-0.001797580742277205
1730553667762620000,2.600619873046875,0.0001331541279796511,0.0010652330238372087,0.0003328853053972125
1730553667772651000,2.610651123046875,0.0001331541279796511,0.0021304660476744175,-0.0012649642303586006
1730553667782679000,2.620678955078125,0.0017310036346316338,0.0021304660476744175,-0.002862813649699092
1730553667792707600,2.63070751953125,0.0017310036346316338,0.0010652330238372087,-0.00019973119196947664
1730553667802735600,2.640735595703125,0.0017310036346316338,0.0021304660476744175,-0.0007323477184399962
1730553667812761300,2.65076123046875,0.0017310036346316338,0.0015978495357558131,-0.0007323477184399962
1730553667822789000,2.6607890625,0.0001331541279796511,0.0015978495357558131,-0.00019973119196947664
1730553667832820700,2.67082080078125,0.0011983871227130294,0.0021304660476744175,0.0008655018173158169
1730553667842848800,2.680848876953125,-0.0003994623839389533,0.0010652330238372087,-0.00019973119196947664
1730553667852876800,2.690876708984375,0.00226362026296556,0.0015978495357558131,-0.0023301972541958094
1730553667862904800,2.70090478515625,0.0011983871227130294,0.0015978495357558131,-0.0012649642303586006
1730553667872929800,2.7109296875,0.0011983871227130294,0.0021304660476744175,-0.001797580742277205
1730553667882957600,2.72095751953125,0.00226362026296556,0.0026630824431777,-0.0023301972541958094
1730553667892989700,2.73098974609375,-0.0003994623839389533,0.0010652330238372087,-0.0023301972541958094
1730553667903018000,2.74101806640625,0.0011983871227130294,0.0031956990715116262,-0.003395430278033018
1730553667913041400,2.75104150390625,0.00226362026296556,0.0031956990715116262,-0.0012649642303586006
1730553667923069200,2.761069091796875,0.0001331541279796511,0.0026630824431777,-0.0007323477184399962
1730553667933099500,2.771099609375,-0.0009320789249613881,0.0021304660476744175,-0.0012649642303586006
1730553667943127600,2.78112744140625,0.000665770610794425,0.0015978495357558131,-0.00019973119196947664
1730553667953160000,2.791159912109375,0.000665770610794425,0,-0.0012649642303586006
1730553667963188500,2.8011884765625,0.0017310036346316338,0.0010652330238372087,-0.0023301972541958094
1730553667973206300,2.811206298828125,0.0017310036346316338,0.0021304660476744175,-0.0012649642303586006
1730553667983233500,2.821233642578125,0.0001331541279796511,0.0015978495357558131,-0.001797580742277205
1730553667993268000,2.83126806640625,-0.0003994623839389533,0.0026630824431777,-0.0023301972541958094
1730553668003296300,2.841296142578125,0.0017310036346316338,0.0026630824431777,-0.0023301972541958094
1730553668013332500,2.85133251953125,0.0011983871227130294,0.0010652330238372087,-0.0012649642303586006
1730553668023361500,2.861361572265625,-0.0003994623839389533,0.0031956990715116262,-0.0012649642303586006
1730553668033379000,2.871379150390625,-0.0003994623839389533,0.0026630824431777,-0.0012649642303586006
1730553668043406800,2.88140673828125,0.0017310036346316338,0.0015978495357558131,-0.003395430278033018
1730553668053436400,2.8914365234375,0.0011983871227130294,0.0010652330238372087,-0.0012649642303586006
1730553668063464400,2.90146435546875,0.0017310036346316338,0.0005326165119186044,-0.0012649642303586006
1730553668073492700,2.91149267578125,-0.0003994623839389533,0.0021304660476744175,-0.002862813649699092
1730553668083520800,2.921520751953125,0.0017310036346316338,0.0021304660476744175,-0.002862813649699092
1730553668093551900,2.9315517578125,0.0017310036346316338,0.0005326165119186044,0.0013981183292344213
1730553668103580200,2.941580078125,0.0011983871227130294,0.0015978495357558131,-0.0007323477184399962
1730553668113603800,2.951603759765625,0.0001331541279796511,0.0010652330238372087,-0.0007323477184399962
1730553668123631600,2.961631591796875,0.000665770610794425,0.0021304660476744175,0.0003328853053972125
1730553668133655600,2.971655517578125,0.0001331541279796511,0.0026630824431777,-0.002862813649699092
1730553668143683000,2.98168310546875,0.0011983871227130294,0.0021304660476744175,-0.003395430278033018
1730553668153722400,2.991722412109375,0.0033288532868027687,0.0021304660476744175,-0.003395430278033018
1730553668163751200,3.001751220703125,0.0011983871227130294,0.0010652330238372087,-0.0012649642303586006
1730553668173756200,3.011756103515625,0.00226362026296556,0.0015978495357558131,-0.003395430278033018
1730553668183782400,3.021782470703125,0.0011983871227130294,0.0021304660476744175,-0.002862813649699092
1730553668193801700,3.0318017578125,0.0001331541279796511,0.0015978495357558131,-0.0012649642303586006
1730553668203827500,3.041827392578125,0.0011983871227130294,0.0015978495357558131,-0.001797580742277205
1730553668213869800,3.051869873046875,0.0001331541279796511,0.0005326165119186044,-0.001797580742277205
1730553668223897000,3.06189697265625,0.000665770610794425,0.0010652330238372087,-0.002862813649699092
1730553668233940500,3.0719404296875,0.0027962366584688425,0.0015978495357558131,-0.002862813649699092
1730553668243969300,3.08196923828125,0.000665770610794425,0.0015978495357558131,-0.0023301972541958094
1730553668253998600,3.09199853515625,0.000665770610794425,0.0026630824431777,0.0003328853053972125
1730553668264027600,3.102027587890625,0.0011983871227130294,0.0026630824431777,-0.0007323477184399962
1730553668274037200,3.112037353515625,-0.0009320789249613881,0.0005326165119186044,-0.00019973119196947664
1730553668284064300,3.122064208984375,0.0011983871227130294,0.0037283156998455524,-0.003928046673536301
1730553668294105900,3.13210595703125,0.000665770610794425,0.0010652330238372087,-0.003395430278033018
1730553668304134400,3.142134521484375,0.0011983871227130294,0.0026630824431777,-0.001797580742277205
1730553668314168000,3.15216796875,0.0001331541279796511,0.0031956990715116262,-0.0012649642303586006
1730553668324197000,3.162197021484375,-0.0014646954368799925,0.0015978495357558131,-0.0012649642303586006
1730553668334222000,3.17222216796875,0.0017310036346316338,0.0021304660476744175,-0.001797580742277205
1730553668344250600,3.182250732421875,0.0027962366584688425,0.0021304660476744175,-0.001797580742277205
1730553668354273800,3.192273681640625,0.0017310036346316338,0.0015978495357558131,-0.0023301972541958094
1730553668364302000,3.202302001953125,0.0011983871227130294,0.0026630824431777,-0.0007323477184399962
1730553668374302500,3.212302490234375,0.0017310036346316338,0.0031956990715116262,-0.0012649642303586006
1730553668384328000,3.222327880859375,0.0001331541279796511,0.0021304660476744175,-0.0012649642303586006
1730553668394390300,3.232390380859375,0.0001331541279796511,0.0026630824431777,-0.003395430278033018
1730553668404419000,3.242419189453125,0.0011983871227130294,0.0015978495357558131,-0.00019973119196947664
1730553668414447900,3.25244775390625,0.0001331541279796511,0.0021304660476744175,-0.0007323477184399962
1730553668424477000,3.262476806640625,0.0001331541279796511,0.0026630824431777,-0.001797580742277205
1730553668434498000,3.272498046875,0.0017310036346316338,0.0037283156998455524,-0.0023301972541958094
1730553668444526300,3.2825263671875,0.0017310036346316338,0.0021304660476744175,-0.002862813649699092
1730553668454528000,3.292528076171875,0.0001331541279796511,0.0010652330238372087,-0.0007323477184399962
1730553668464553500,3.302553466796875,0.0017310036346316338,0.0026630824431777,-0.0012649642303586006
1730553668474607400,3.312607421875,0.0027962366584688425,0.0026630824431777,-0.0023301972541958094
1730553668484635600,3.3226357421875,0.0001331541279796511,0.0026630824431777,-0.00019973119196947664
1730553668494659800,3.332659912109375,0.0001331541279796511,0.0031956990715116262,-0.0007323477184399962
1730553668504687900,3.34268798828125,0.0017310036346316338,0.0031956990715116262,-0.0012649642303586006
1730553668514718500,3.352718505859375,0.000665770610794425,0.0021304660476744175,-0.002862813649699092
1730553668524746800,3.362746826171875,0.000665770610794425,0.0021304660476744175,-0.0023301972541958094
1730553668534783700,3.37278369140625,0.0017310036346316338,0.0005326165119186044,-0.0007323477184399962
1730553668544812800,3.382812744140625,0.0011983871227130294,0.0010652330238372087,-0.00019973119196947664
1730553668554833700,3.392833740234375,0.0011983871227130294,0.0015978495357558131,-0.001797580742277205
1730553668564861700,3.40286181640625,0.000665770610794425,0.0021304660476744175,-0.0007323477184399962
1730553668574885000,3.412885009765625,0.000665770610794425,0.0021304660476744175,-0.0023301972541958094
1730553668584913000,3.422912841796875,0.0011983871227130294,0.0031956990715116262,-0.00019973119196947664
1730553668594928400,3.432928466796875,0.0017310036346316338,0.0026630824431777,-0.001797580742277205
1730553668604955000,3.442954833984375,0.00226362026296556,0.0021304660476744175,-0.001797580742277205
1730553668614980400,3.45298046875,0.000665770610794425,0.0010652330238372087,-0.003395430278033018
1730553668625006800,3.4630068359375,-0.0003994623839389533,0.0010652330238372087,-0.002862813649699092
1730553668635047400,3.47304736328125,0.000665770610794425,0.0021304660476744175,-0.001797580742277205
1730553668645075500,3.483075439453125,0.0027962366584688425,0.0015978495357558131,-0.0012649642303586006
1730553668655098600,3.4930986328125,0.00226362026296556,0.0021304660476744175,-0.003395430278033018
1730553668665126100,3.503126220703125,0.000665770610794425,0.0031956990715116262,-0.002862813649699092
1730553668675155000,3.513155029296875,-0.0014646954368799925,0.0015978495357558131,-0.0012649642303586006
1730553668685182500,3.523182373046875,0.0011983871227130294,0.0021304660476744175,0.0003328853053972125
1730553668695215000,3.533215087890625,0.0027962366584688425,0.0037283156998455524,-0.0012649642303586006
1730553668705243100,3.5432431640625,0.0038614696823060513,0.0010652330238372087,-0.003395430278033018
1730553668715305200,3.55330517578125,0.0011983871227130294,0,-0.0023301972541958094
1730553668725336600,3.563336669921875,-0.0003994623839389533,0.0021304660476744175,-0.0012649642303586006
1730553668735322600,3.573322509765625,0.0017310036346316338,0.0037283156998455524,-0.0007323477184399962
1730553668745349400,3.583349365234375,0.0011983871227130294,0.0015978495357558131,-0.0012649642303586006
1730553668755381000,3.593381103515625,0.000665770610794425,0.0021304660476744175,-0.0012649642303586006
1730553668765408300,3.603408203125,0.0011983871227130294,0.0026630824431777,-0.001797580742277205
1730553668775436500,3.6134365234375,0.000665770610794425,0.0021304660476744175,-0.0023301972541958094
1730553668785464000,3.623464111328125,0.0011983871227130294,0.0010652330238372087,-0.0012649642303586006
1730553668795485200,3.633485107421875,0.00226362026296556,0.0010652330238372087,-0.001797580742277205
1730553668805512000,3.643511962890625,0.0011983871227130294,0.0005326165119186044,-0.001797580742277205
1730553668815544300,3.65354443359375,0.000665770610794425,0.0005326165119186044,-0.0023301972541958094
1730553668825571800,3.66357177734375,0.0017310036346316338,0.0021304660476744175,-0.0023301972541958094
1730553668835602000,3.673601806640625,0.0011983871227130294,0.0026630824431777,-0.00019973119196947664
1730553668845629700,3.683629638671875,0.0017310036346316338,0.0026630824431777,-0.0007323477184399962
1730553668855671300,3.69367138671875,0.0001331541279796511,0.0010652330238372087,-0.0023301972541958094
1730553668865700400,3.703700439453125,0.0011983871227130294,0.0026630824431777,-0.002862813649699092
1730553668875726000,3.71372607421875,0.00226362026296556,0.0031956990715116262,-0.001797580742277205
1730553668885755000,3.7237548828125,0.0011983871227130294,0.0010652330238372087,-0.00019973119196947664
1730553668895755000,3.733755126953125,0.0017310036346316338,0.0026630824431777,-0.001797580742277205
1730553668905781000,3.743781005859375,0.0001331541279796511,0.0021304660476744175,-0.0023301972541958094
1730553668915833900,3.753833740234375,0.000665770610794425,0.0015978495357558131,-0.001797580742277205
1730553668925862400,3.7638623046875,0.00226362026296556,0.0021304660476744175,-0.002862813649699092
1730553668935892700,3.773892822265625,0.000665770610794425,0.0026630824431777,-0.0023301972541958094
1730553668945921500,3.783921630859375,0.0011983871227130294,0.0026630824431777,-0.0012649642303586006
1730553668955950600,3.79395068359375,0.000665770610794425,0.0015978495357558131,-0.0007323477184399962
1730553668965979100,3.803979248046875,0.0017310036346316338,0.0015978495357558131,-0.0007323477184399962
1730553668975984000,3.813984130859375,0.0011983871227130294,0.0026630824431777,-0.0023301972541958094
1730553668986010400,3.82401025390625,0.0011983871227130294,0.0021304660476744175,-0.002862813649699092
1730553668996056600,3.834056640625,0.0011983871227130294,0.0031956990715116262,-0.003395430278033018
1730553669006084900,3.8440849609375,0.0017310036346316338,0.0015978495357558131,-0.002862813649699092
1730553669016116200,3.8541162109375,0.0017310036346316338,0.0015978495357558131,-0.003395430278033018
1730553669026145000,3.86414501953125,0.0001331541279796511,0.0015978495357558131,-0.0012649642303586006
1730553669036179700,3.8741796875,0.0001331541279796511,0.0026630824431777,-0.0007323477184399962
1730553669046209000,3.884208984375,0.000665770610794425,0.0026630824431777,-0.0007323477184399962
1730553669056226000,3.89422607421875,0.0017310036346316338,0.0005326165119186044,-0.0012649642303586006
1730553669066254000,3.904254150390625,-0.0003994623839389533,0.0026630824431777,-0.003928046673536301
1730553669076287200,3.914287353515625,0.000665770610794425,0.0021304660476744175,-0.002862813649699092
1730553669086315800,3.924315673828125,0.00226362026296556,0.0021304660476744175,-0.001797580742277205
1730553669096343000,3.934343017578125,0.00226362026296556,0.0026630824431777,-0.0007323477184399962
1730553669106371600,3.94437158203125,0.0001331541279796511,0.0037283156998455524,-0.0007323477184399962
1730553669116398300,3.9543984375,0.0001331541279796511,0.0031956990715116262,-0.0012649642303586006
1730553669126426400,3.96442626953125,0.0011983871227130294,0.0021304660476744175,-0.0023301972541958094
1730553669136476000,3.974475830078125,0.00226362026296556,0.0015978495357558131,-0.002862813649699092
1730553669146506200,3.98450634765625,0.00226362026296556,0.0021304660476744175,-0.0023301972541958094
1730553669156489200,3.9944892578125,0.0011983871227130294,0.0026630824431777,-0.002862813649699092
1730553669166515000,4.004514892578125,0.000665770610794425,0.0037283156998455524,-0.003395430278033018
1730553669176563500,4.0145634765625,0.0001331541279796511,0.0026630824431777,-0.0023301972541958094
1730553669186591200,4.02459130859375,-0.0003994623839389533,0.0026630824431777,-0.0023301972541958094
1730553669196626000,4.0346259765625,0.0027962366584688425,0.0010652330238372087,-0.001797580742277205
1730553669206654500,4.044654541015625,0.0011983871227130294,0.0015978495357558131,-0.00019973119196947664
1730553669216683500,4.05468359375,-0.0014646954368799925,0.0026630824431777,-0.00019973119196947664
1730553669226712300,4.06471240234375,0.0001331541279796511,0.0026630824431777,-0.003395430278033018
1730553669236732000,4.07473193359375,0.0011983871227130294,0.0026630824431777,-0.004460663069039583
1730553669246759700,4.084759765625,0.000665770610794425,0.0026630824431777,-0.003395430278033018
1730553669256792000,4.0947919921875,0.0011983871227130294,0.0010652330238372087,-0.0007323477184399962
1730553669266820400,4.1048203125,0.00226362026296556,0.0031956990715116262,-0.0007323477184399962
1730553669276853500,4.114853515625,0.000665770610794425,0.0015978495357558131,-0.0007323477184399962
1730553669286882300,4.12488232421875,0.0001331541279796511,0.0015978495357558131,-0.0012649642303586006
1730553669296912400,4.134912353515625,0.0001331541279796511,0.0010652330238372087,-0.00019973119196947664
1730553669306941200,4.144941162109375,0.000665770610794425,0.0015978495357558131,-0.0007323477184399962
1730553669316949500,4.154949462890625,0.00226362026296556,0.0010652330238372087,-0.0012649642303586006
1730553669326976300,4.164976318359375,0.0017310036346316338,0.0010652330238372087,-0.0012649642303586006
1730553669337002200,4.175002197265625,0.0017310036346316338,0.0005326165119186044,-0.0012649642303586006
1730553669347029000,4.185029052734375,0.000665770610794425,0.0021304660476744175,-0.00019973119196947664
1730553669357059000,4.19505908203125,0.000665770610794425,0.0031956990715116262,-0.0023301972541958094
1730553669367086000,4.205086181640625,-0.0009320789249613881,0.0015978495357558131,-0.0012649642303586006
1730553669377113300,4.21511328125,0.0011983871227130294,0.0015978495357558131,-0.002862813649699092
1730553669387140400,4.225140380859375,0.0011983871227130294,0.0005326165119186044,-0.001797580742277205
1730553669397195300,4.2351953125,0.0017310036346316338,0,0.0003328853053972125
1730553669407225000,4.24522509765625,0.0017310036346316338,0.0015978495357558131,-0.0012649642303586006
1730553669417201000,4.255200927734375,0.0011983871227130294,0.0026630824431777,-0.001797580742277205
1730553669427225300,4.265225341796875,0.0001331541279796511,0.0015978495357558131,-0.001797580742277205
1730553669437286100,4.2752861328125,0.0011983871227130294,0.0015978495357558131,-0.0012649642303586006
1730553669447314200,4.285314208984375,0.000665770610794425,0.0005326165119186044,-0.001797580742277205
1730553669457334800,4.295334716796875,0.0017310036346316338,0.0015978495357558131,-0.001797580742277205
1730553669467362300,4.3053623046875,0.00226362026296556,0,-0.0023301972541958094
1730553669477391600,4.3153916015625,0.0017310036346316338,0,-0.002862813649699092
1730553669487419400,4.32541943359375,-0.0003994623839389533,0.0021304660476744175,-0.002862813649699092
1730553669497426200,4.33542626953125,-0.0009320789249613881,0.0026630824431777,-0.0023301972541958094
1730553669507451600,4.34545166015625,0.00226362026296556,0.0015978495357558131,-0.0012649642303586006
1730553669517514800,4.3555146484375,0.0033288532868027687,0.0031956990715116262,-0.0023301972541958094
1730553669527544000,4.3655439453125,-0.0009320789249613881,0.0031956990715116262,-0.0023301972541958094
1730553669537569800,4.37556982421875,-0.0003994623839389533,0.0031956990715116262,-0.0007323477184399962
1730553669547598800,4.385598876953125,0.0017310036346316338,0.0026630824431777,-0.0007323477184399962
1730553669557634600,4.395634521484375,0.000665770610794425,0.0037283156998455524,-0.0012649642303586006
1730553669567664400,4.405664306640625,0.0001331541279796511,0.0015978495357558131,-0.001797580742277205
1730553669577686800,4.415686767578125,-0.001997311832383275,-0.0005991935613565147,-0.002862813649699092
1730553669587715800,4.4257158203125,-0.0014646954368799925,0.0026630824431777,-0.0012649642303586006
1730553669597720600,4.435720458984375,0.0011983871227130294,0.0026630824431777,-0.0012649642303586006
1730553669607747000,4.4457470703125,0.004394086077809334,0.0015978495357558131,-0.003395430278033018
1730553669617807000,4.45580712890625,0.0038614696823060513,0.0021304660476744175,-0.003395430278033018
1730553669627837000,4.4658369140625,-0.0003994623839389533,0.0026630824431777,-0.003928046673536301
1730553669637853400,4.475853515625,0.0011983871227130294,0.0031956990715116262,-0.0023301972541958094
1730553669647881700,4.4858818359375,0.0017310036346316338,0.0026630824431777,-0.0007323477184399962
1730553669657907500,4.495907470703125,0.00226362026296556,0.0021304660476744175,-0.0012649642303586006
1730553669667935500,4.505935546875,0.0001331541279796511,0.0015978495357558131,-0.001797580742277205
1730553669677923300,4.51592333984375,0.0001331541279796511,0.0015978495357558131,-0.0023301972541958094
1730553669687947500,4.525947509765625,0.0011983871227130294,0.0010652330238372087,-0.001797580742277205
1730553669698023000,4.53602294921875,0.0001331541279796511,0.0010652330238372087,-0.0012649642303586006
1730553669708052200,4.54605224609375,0.00226362026296556,0.0010652330238372087,-0.0023301972541958094
1730553669718083000,4.5560830078125,0.0011983871227130294,0.0005326165119186044,-0.0012649642303586006
1730553669728112600,4.566112548828125,0.000665770610794425,0.0010652330238372087,-0.0012649642303586006
1730553669738136800,4.57613671875,0.00226362026296556,0.0031956990715116262,-0.0007323477184399962
1730553669748166000,4.586165771484375,0.000665770610794425,0.0031956990715116262,-0.0012649642303586006
1730553669758187800,4.596187744140625,0.000665770610794425,0.0021304660476744175,-0.001797580742277205
1730553669768216000,4.606216064453125,0.0017310036346316338,0.0021304660476744175,-0.001797580742277205
1730553669778253000,4.616253173828125,0.0011983871227130294,0.0037283156998455524,-0.0012649642303586006
1730553669788282000,4.6262822265625,0.000665770610794425,0.0031956990715116262,-0.004460663069039583
1730553669798313500,4.6363134765625,0.0001331541279796511,0.0015978495357558131,-0.0012649642303586006
1730553669808342800,4.6463427734375,0.0011983871227130294,0.0005326165119186044,-0.00019973119196947664
1730553669818365200,4.656365234375,0.0011983871227130294,0.0021304660476744175,-0.0023301972541958094
1730553669828393700,4.666393798828125,0.0017310036346316338,0.0037283156998455524,-0.0023301972541958094
1730553669838417000,4.6764169921875,0.0017310036346316338,0.0037283156998455524,-0.0023301972541958094
1730553669848445000,4.68644482421875,0.0001331541279796511,0.0031956990715116262,-0.0007323477184399962
1730553669858444800,4.69644482421875,0.000665770610794425,0.0015978495357558131,-0.0023301972541958094
1730553669868470000,4.706469970703125,0.0017310036346316338,0.0021304660476744175,-0.002862813649699092
1730553669878540300,4.716540283203125,0.0017310036346316338,0.0005326165119186044,-0.00019973119196947664
1730553669888570000,4.726570068359375,0.0001331541279796511,0.0010652330238372087,-0.0007323477184399962
1730553669898578200,4.736578125,-0.0003994623839389533,0.0005326165119186044,-0.0012649642303586006
1730553669908605700,4.746605712890625,0.000665770610794425,0.0010652330238372087,-0.001797580742277205
1730553669918640600,4.756640625,0.0001331541279796511,0.0031956990715116262,-0.001797580742277205
1730553669928669000,4.7666689453125,0.000665770610794425,0.0021304660476744175,-0.00019973119196947664
1730553669938696400,4.776696533203125,0.0011983871227130294,0.0021304660476744175,-0.001797580742277205
1730553669948724500,4.786724365234375,0.0017310036346316338,0.0031956990715116262,-0.0012649642303586006
1730553669958750500,4.79675048828125,0.0027962366584688425,0.0015978495357558131,-0.0007323477184399962
1730553669968778500,4.806778564453125,0.000665770610794425,0.0021304660476744175,-0.0023301972541958094
1730553669978801400,4.816801513671875,0.0001331541279796511,0.0026630824431777,-0.001797580742277205
1730553669988829000,4.826828857421875,0.0027962366584688425,0.0015978495357558131,-0.0012649642303586006
1730553669998858000,4.83685791015625,0.0027962366584688425,0.0010652330238372087,-0.002862813649699092
1730553670008885800,4.8468857421875,0.000665770610794425,0.0010652330238372087,-0.003395430278033018
1730553670018923000,4.856923095703125,-0.0014646954368799925,0.0010652330238372087,-0.0023301972541958094
1730553670028951800,4.866951904296875,0.00226362026296556,0.0010652330238372087,-0.001797580742277205
1730553670038975700,4.876975830078125,0.00226362026296556,0.0015978495357558131,-0.001797580742277205
1730553670049003800,4.887003662109375,0.0027962366584688425,0.0026630824431777,-0.0023301972541958094
1730553670059029200,4.897029296875,0.0033288532868027687,0.0037283156998455524,-0.001797580742277205
1730553670069057000,4.90705712890625,0.0038614696823060513,0.0021304660476744175,-0.001797580742277205
1730553670079081500,4.91708154296875,0.0017310036346316338,0.0026630824431777,-0.0023301972541958094
1730553670089109000,4.92710888671875,0.000665770610794425,0.0037283156998455524,-0.0007323477184399962
1730553670099123700,4.937123779296875,0.000665770610794425,0.0015978495357558131,-0.0007323477184399962
1730553670109150000,4.94714990234375,0.0017310036346316338,0.0037283156998455524,-0.002862813649699092
1730553670119176000,4.957176025390625,0.00226362026296556,0.0026630824431777,-0.002862813649699092
1730553670129202000,4.967201904296875,0.0011983871227130294,0.0015978495357558131,-0.0012649642303586006
1730553670139256600,4.977256591796875,0.0017310036346316338,0.0021304660476744175,-0.0012649642303586006
1730553670149285600,4.98728564453125,-0.0003994623839389533,0.0010652330238372087,-0.004993279930204153
1730553670159306800,4.997306640625,0.0017310036346316338,0.0021304660476744175,-0.0023301972541958094
1730553670169335000,5.0073349609375,0.0027962366584688425,0.004260932095348835,-0.0007323477184399962
1730553670179362300,5.0173623046875,0.00226362026296556,0.0021304660476744175,0.0003328853053972125
1730553670189390300,5.027390380859375,0.0017310036346316338,0.0021304660476744175,-0.00019973119196947664
1730553670199424000,5.037424072265625,0.00226362026296556,0.0026630824431777,-0.0012649642303586006
1730553670209452800,5.047452880859375,0.0027962366584688425,0.0026630824431777,-0.0012649642303586006
1730553670219483000,5.05748291015625,0.000665770610794425,0.0021304660476744175,-0.001797580742277205
1730553670229511700,5.06751171875,0.0011983871227130294,0.0010652330238372087,-0.001797580742277205
1730553670239529200,5.077529296875,0.0011983871227130294,0.0010652330238372087,-0.00019973119196947664
1730553670249556700,5.087556640625,0.0011983871227130294,0.0021304660476744175,-0.002862813649699092
1730553670259570700,5.09757080078125,0.0017310036346316338,0.0015978495357558131,-0.003395430278033018
1730553670269597000,5.107596923828125,-0.0003994623839389533,0.0010652330238372087,-0.0012649642303586006
1730553670279643100,5.11764306640625,0.000665770610794425,0.0005326165119186044,-0.0007323477184399962
1730553670289671400,5.12767138671875,0.0017310036346316338,0.0010652330238372087,-0.001797580742277205
1730553670299697700,5.13769775390625,0.000665770610794425,0.0015978495357558131,-0.0012649642303586006
1730553670309725700,5.1477255859375,0.000665770610794425,0.0015978495357558131,-0.001797580742277205
1730553670319758800,5.1577587890625,0.0011983871227130294,0.0010652330238372087,0.0003328853053972125
1730553670329787400,5.167787353515625,0.0017310036346316338,0.0021304660476744175,-0.001797580742277205
1730553670339786800,5.177786865234375,0.00226362026296556,0.0021304660476744175,-0.0007323477184399962
1730553670349812500,5.1878125,0.00226362026296556,0.0005326165119186044,-0.0012649642303586006
1730553670359863300,5.19786328125,0.0033288532868027687,0.0031956990715116262,-0.002862813649699092
1730553670369891300,5.207891357421875,0.0027962366584688425,0.0037283156998455524,-0.001797580742277205
1730553670379895000,5.21789501953125,0.0033288532868027687,0.0015978495357558131,-0.0023301972541958094
1730553670389920800,5.227920654296875,0.0011983871227130294,0.0031956990715116262,-0.003928046673536301
1730553670399978800,5.237978759765625,0.000665770610794425,0.0026630824431777,-0.001797580742277205
1730553670410007600,5.248007568359375,0.0011983871227130294,0.0021304660476744175,-0.001797580742277205
1730553670420036000,5.2580361328125,0.0001331541279796511,0.0005326165119186044,-0.0023301972541958094
1730553670430065200,5.268065185546875,0.0011983871227130294,0.0010652330238372087,-0.001797580742277205
1730553670440071700,5.27807177734375,0.0017310036346316338,0.0026630824431777,-0.001797580742277205
1730553670450098400,5.288098388671875,0.0027962366584688425,0.0026630824431777,-0.0023301972541958094
1730553670460129000,5.29812890625,0.00226362026296556,0.0031956990715116262,-0.003395430278033018
1730553670470156000,5.308156005859375,0.00226362026296556,0.0026630824431777,-0.002862813649699092
1730553670480207400,5.318207275390625,0.0017310036346316338,0.0021304660476744175,-0.002862813649699092
1730553670490236700,5.328236572265625,0.0017310036346316338,0.0026630824431777,-0.001797580742277205
1730553670500253700,5.338253662109375,0.00226362026296556,0.0015978495357558131,-0.0012649642303586006
1730553670510282000,5.348281982421875,0.0027962366584688425,0.0037283156998455524,-0.001797580742277205
1730553670520310500,5.358310546875,0.0027962366584688425,0.0021304660476744175,-0.001797580742277205
1730553670530338800,5.3683388671875,0.0027962366584688425,0.0026630824431777,-0.0023301972541958094
1730553670540358100,5.378358154296875,0.0017310036346316338,0.0015978495357558131,-0.0012649642303586006
1730553670550385700,5.3883857421875,0.000665770610794425,0.0031956990715116262,-0.0007323477184399962
1730553670560386800,5.39838671875,0.0017310036346316338,0.0015978495357558131,-0.002862813649699092
1730553670570411500,5.40841162109375,0.0017310036346316338,0.0021304660476744175,-0.003928046673536301
1730553670580465200,5.418465087890625,0.0001331541279796511,0.0015978495357558131,-0.003395430278033018
1730553670590492700,5.42849267578125,-0.0009320789249613881,0.0015978495357558131,-0.001797580742277205
1730553670600511000,5.438510986328125,0.0011983871227130294,0.0026630824431777,-0.003395430278033018
1730553670610537700,5.448537841796875,0.0011983871227130294,0.0021304660476744175,-0.004460663069039583
1730553670620601600,5.4586015625,0.00226362026296556,0.0037283156998455524,-0.0023301972541958094
1730553670630632000,5.4686318359375,0.00226362026296556,0.0010652330238372087,-0.001797580742277205
1730553670640636700,5.47863671875,0.000665770610794425,0.0015978495357558131,-0.001797580742277205
1730553670650664700,5.488664794921875,0.0011983871227130294,0.0021304660476744175,-0.0023301972541958094
1730553670660698000,5.498697998046875,0.000665770610794425,0.0015978495357558131,-0.002862813649699092
1730553670670726700,5.5087265625,0.00226362026296556,0.0026630824431777,-0.003395430278033018
1730553670680742700,5.51874267578125,0.00226362026296556,0.0031956990715116262,-0.0023301972541958094
1730553670690770000,5.52877001953125,0.0017310036346316338,0.0037283156998455524,-0.002862813649699092
1730553670700798500,5.538798583984375,0.00226362026296556,0.0031956990715116262,-0.002862813649699092
1730553670710825700,5.54882568359375,0.0011983871227130294,0.0026630824431777,-0.002862813649699092
1730553670720854500,5.5588544921875,0.00226362026296556,0.0031956990715116262,-0.003928046673536301
1730553670730882000,5.568882080078125,0.000665770610794425,0.0026630824431777,-0.003395430278033018
1730553670740893200,5.57889306640625,0.000665770610794425,0.0021304660476744175,-0.001797580742277205
1730553670750919200,5.588919189453125,0.0017310036346316338,0.0010652330238372087,-0.00019973119196947664
1730553670760945000,5.59894482421875,0.0011983871227130294,0.0015978495357558131,-0.003395430278033018
1730553670770989600,5.608989501953125,0.00226362026296556,0.0037283156998455524,-0.002862813649699092
1730553670781016800,5.619016845703125,0.00226362026296556,0.0015978495357558131,-0.0023301972541958094
1730553670791055600,5.6290556640625,0.0011983871227130294,0.0031956990715116262,-0.0012649642303586006
1730553670801084200,5.639084228515625,0.0001331541279796511,0.0037283156998455524,-0.0023301972541958094
1730553670811111200,5.649111083984375,0.0017310036346316338,0.0026630824431777,-0.0023301972541958094
1730553670821139200,5.65913916015625,0.0017310036346316338,0.0026630824431777,-0.002862813649699092
1730553670831188000,5.66918798828125,0.0017310036346316338,0.0015978495357558131,-0.005525896325707436
1730553670841218000,5.679218017578125,0.0017310036346316338,0.0015978495357558131,-0.003395430278033018
1730553670851224800,5.689224853515625,0.0011983871227130294,0.0026630824431777,-0.001797580742277205
1730553670861252600,5.699252685546875,0.0011983871227130294,0.0021304660476744175,-0.001797580742277205
1730553670871271400,5.709271484375,0.0017310036346316338,0.0026630824431777,-0.002862813649699092
1730553670881298400,5.71929833984375,0.0017310036346316338,0.0026630824431777,-0.002862813649699092
1730553670891326000,5.729325927734375,0.0011983871227130294,0.0021304660476744175,-0.0023301972541958094
1730553670901353000,5.73935302734375,0.0017310036346316338,0.0026630824431777,-0.003395430278033018
1730553670911392500,5.749392578125,0.00226362026296556,0.0021304660476744175,-0.004460663069039583
1730553670921420800,5.7594208984375,0.0001331541279796511,0.0026630824431777,-0.003395430278033018
1730553670931446000,5.769446044921875,0.0011983871227130294,0.004260932095348835,-0.0007323477184399962
1730553670941474000,5.77947412109375,0.0017310036346316338,0.0026630824431777,-0.001797580742277205
1730553670951500800,5.789500732421875,0.000665770610794425,0.0015978495357558131,-0.002862813649699092
1730553670961528800,5.79952880859375,0.0001331541279796511,0.0031956990715116262,-0.0023301972541958094
1730553670971546000,5.809546142578125,0.000665770610794425,0.0015978495357558131,-0.0012649642303586006
1730553670981572900,5.81957275390625,0.0011983871227130294,0.0015978495357558131,-0.0023301972541958094
1730553670991615000,5.829614990234375,0.0017310036346316338,0.0021304660476744175,-0.001797580742277205
1730553671001643300,5.839643310546875,0.0011983871227130294,0.0021304660476744175,-0.001797580742277205
1730553671011668500,5.84966845703125,0.000665770610794425,0.0026630824431777,-0.003395430278033018
1730553671021696500,5.859696533203125,-0.0009320789249613881,0.0015978495357558131,-0.001797580742277205
1730553671031736800,5.86973681640625,0.0011983871227130294,0.0021304660476744175,-0.001797580742277205
1730553671041766100,5.87976611328125,-0.0003994623839389533,0.0015978495357558131,-0.0012649642303586006
1730553671051788500,5.88978857421875,-0.0003994623839389533,0.0015978495357558131,-0.0023301972541958094
1730553671061817000,5.899817138671875,0.0011983871227130294,0.0021304660476744175,-0.004460663069039583
1730553671071911400,5.909911376953125,0.0027962366584688425,0.0015978495357558131,-0.0007323477184399962
1730553671081946600,5.919946533203125,0.000665770610794425,0.0026630824431777,-0.00019973119196947664
1730553671091906000,5.929906005859375,0.0001331541279796511,0.0031956990715116262,-0.0007323477184399962
1730553671101933600,5.93993359375,0.0011983871227130294,0.0031956990715116262,-0.001797580742277205
1730553671111963100,5.949963134765625,0.0027962366584688425,0.0021304660476744175,-0.001797580742277205
1730553671121991000,5.959990966796875,0.0038614696823060513,0.0021304660476744175,-0.0012649642303586006
1730553671132018200,5.97001806640625,0.0011983871227130294,0.0037283156998455524,-0.0007323477184399962
1730553671142046000,5.9800458984375,0.0011983871227130294,0.0031956990715116262,-0.0012649642303586006
1730553671152076300,5.990076171875,0.0011983871227130294,-0.0005991935613565147,-0.001797580742277205
1730553671162104300,6.000104248046875,0.00226362026296556,0.0031956990715116262,-0.0012649642303586006
1730553671172090000,6.010090087890625,0.0017310036346316338,0.0047935484908521175,-0.001797580742277205
1730553671182113800,6.02011376953125,0.0027962366584688425,-0.002729659667238593,-0.003928046673536301
1730553671192182800,6.030182861328125,0.0011983871227130294,0,-0.003928046673536301
1730553671202211000,6.040211181640625,0.000665770610794425,0.0047935484908521175,-0.002862813649699092
1730553671212248000,6.050248046875,0.0027962366584688425,0.0021304660476744175,-0.0023301972541958094
1730553671222277000,6.060277099609375,0.0033288532868027687,0.0021304660476744175,-0.002862813649699092
1730553671232297200,6.070297119140625,0.0017310036346316338,0.0015978495357558131,-0.001797580742277205
1730553671242325500,6.080325439453125,0.0017310036346316338,0.0026630824431777,-0.00019973119196947664
1730553671252350000,6.090349853515625,0.00226362026296556,0.0031956990715116262,-0.0007323477184399962
1730553671262378000,6.1003779296875,0.0017310036346316338,0.0031956990715116262,-0.0012649642303586006
1730553671272415000,6.1104150390625,0.0011983871227130294,0.0010652330238372087,-0.0023301972541958094
1730553671282443800,6.12044384765625,0.0011983871227130294,0.0015978495357558131,-0.0007323477184399962
1730553671292468700,6.13046875,0.0001331541279796511,0.0026630824431777,-0.001797580742277205
1730553671302497000,6.1404970703125,0.0017310036346316338,-0.0005991935613565147,-0.002862813649699092
1730553671312520400,6.1505205078125,0.00226362026296556,-0.018175538629293442,-0.00978682842105627
1730553671322548500,6.160548583984375,0.0017310036346316338,-0.004860125482082367,-0.006591129116714001
1730553671332580400,6.170580322265625,0.000665770610794425,-0.007523208390921354,-0.004993279930204153
1730553671342608600,6.180608642578125,0.000665770610794425,-0.004327509086579084,-0.003928046673536301
1730553671352640000,6.190639892578125,0.0001331541279796511,-0.013914606533944607,-0.007656362373381853
1730553671362668500,6.20066845703125,0.0001331541279796511,-0.008588441647589207,-0.005525896325707436
1730553671372666000,6.210666015625,0.0001331541279796511,-0.008588441647589207,-0.006058512721210718
1730553671382691600,6.220691650390625,0.0017310036346316338,-0.0005991935613565147,-0.002862813649699092
1730553671392741600,6.23074169921875,0.0011983871227130294,-0.008588441647589207,-0.003395430278033018
1730553671402769700,6.240769775390625,0.0038614696823060513,-0.034686651080846786,-0.01564561016857624
1730553671412797200,6.250797119140625,0.0011983871227130294,-0.05705654248595238,-0.024234050884842873
1730553671422825200,6.2608251953125,0.0001331541279796511,-0.10026505589485168,-0.0476691760122776
1730553671432834800,6.270834716796875,-0.009986559860408306,-0.14979839324951172,-0.07749570161104202
1730553671442861000,6.280861083984375,-0.013714875094592571,-0.14500483870506287,-0.09720251709222794
1730553671452913200,6.2909130859375,-0.005725627299398184,-0.11677616834640503,-0.10519175976514816
1730553671462942000,6.30094189453125,-0.04673709720373154,-0.09387365728616714,-0.11371362209320068
1730553671472959500,6.31095947265625,-0.07822804898023605,-0.07942643761634827,-0.12816084921360016
1730553671482987000,6.320987060546875,0.008122402243316174,-0.04054543375968933,-0.14733503758907318
1730553671493015800,6.331015869140625,0.17709499597549438,-0.028827868402004242,-0.16437877714633942
1730553671503043300,6.341043212890625,0.2698368430137634,-0.002197043038904667,-0.1547916680574417
1730553671513070800,6.35107080078125,0.24427124857902527,0.031424373388290405,-0.10945269465446472
1730553671523061200,6.361061279296875,0.14673584699630737,0.0633813664317131,-0.07643046975135803
1730553671533086200,6.371086181640625,0.056657079607248306,0.050598569214344025,-0.07962616533041
1730553671543166200,6.381166259765625,0.028961023315787315,0.022902509197592735,-0.09613727778196335
1730553671553196500,6.391196533203125,0.09180977195501328,0.043141938745975494,-0.08228924870491028
1730553671563227400,6.401227294921875,0.19200825691223145,0.05645735189318657,-0.05139749497175217
1730553671573257700,6.4112578125,0.20266057550907135,0.0037283156998455524,-0.06418029218912125
1730553671583271000,6.42127099609375,0.10352733731269836,-0.02776263654232025,-0.08814803510904312
1730553671593318100,6.431318115234375,-0.001997311832383275,-0.03521926701068878,-0.08868064731359482
1730553671603326500,6.441326416015625,-0.02276935614645481,-0.03894758224487305,-0.07749570161104202
1730553671613356800,6.451356689453125,0.03375457227230072,-0.0016644266434013844,-0.04713656008243561
1730553671623387100,6.46138720703125,0.08275528997182846,0.048468101769685745,-0.029560215771198273
1730553671633416000,6.471416015625,0.11957240849733353,0.07776200771331787,-0.05139749497175217
1730553671643446300,6.4814462890625,0.1339530497789383,0.036750540137290955,-0.06684337556362152
1730553671653476600,6.4914765625,0.09021192044019699,0.043141938745975494,-0.04713656008243561
1730553671663507000,6.5015068359375,0.06304848194122314,0.061250898987054825,-0.0375494658946991
1730553671673524500,6.5115244140625,0.08275528997182846,0.055924732238054276,-0.0482017956674099
1730553671683553500,6.521553466796875,0.11151657998561859,0.07030537724494934,-0.05299534276127815
1730553671693560300,6.531560302734375,0.11690932512283325,0.0750989317893982,-0.05033225938677788
1730553671703587000,6.541587158203125,0.10139686614274979,0.06497921794652939,-0.04340824484825134
1730553671713650200,6.551650146484375,0.05825493112206459,0.01810896210372448,-0.03328853100538254
1730553671723680500,6.561680419921875,0.020372580736875534,-0.005392742343246937,-0.028494983911514282
1730553671733701600,6.57170166015625,0.010785484686493874,0,-0.03169068321585655
1730553671743731200,6.581731201171875,0.005991935729980469,0.0015978495357558131,-0.0375494658946991
1730553671753749800,6.591749755859375,0.03268933668732643,0.0063913981430232525,-0.0375494658946991
1730553671763778000,6.601778076171875,0.09766855090856552,-0.023501703515648842,-0.03488638252019882
1730553671773793300,6.611793212890625,0.16963836550712585,-0.04853468015789986,-0.029027599841356277
1730553671783820300,6.6218203125,0.2074541300535202,-0.04693682864308357,-0.024766668677330017
1730553671793867000,6.631866943359375,0.210183784365654,-0.008055824786424637,-0.03861469775438309
1730553671803896000,6.64189599609375,0.20106273889541626,0.04473978653550148,-0.05991935729980469
1730553671813919200,6.651919189453125,0.15845340490341187,0.11511174589395523,-0.0790935531258583
1730553671823947500,6.661947509765625,0.0896793082356453,0.1940055638551712,-0.08282186836004257
1730553671833979100,6.671979248046875,0.0358850359916687,0.19613602757453918,-0.07430000603199005
1730553671844007700,6.682007568359375,0.005991935729980469,0.12469884008169174,-0.05991935729980469
1730553671854028800,6.69202880859375,-0.02063889056444168,0.043141938745975494,-0.04926702752709389
1730553671864056800,6.702056884765625,-0.020106272771954536,0.016511112451553345,-0.05033225938677788
1730553671874070000,6.712070068359375,0.021437814459204674,0.02769605815410614,-0.04021254554390907
1730553671884096500,6.722096435546875,0.028961023315787315,0.09380708634853363,-0.04607132822275162
1730553671894142200,6.73214208984375,0.021437814459204674,0.19240771234035492,-0.07589785009622574
1730553671904170500,6.74217041015625,0.023634858429431915,0.27549588680267334,-0.09134373068809509
1730553671914199000,6.752198974609375,-0.006790860556066036,0.3240305781364441,-0.10519175976514816
1730553671924227300,6.762227294921875,-0.055258963257074356,0.336813360452652,-0.10838746279478073
1730553671934244400,6.772244384765625,-0.09260869771242142,0.3128456175327301,-0.08708280324935913
1730553671944272000,6.78227197265625,-0.11338073760271072,0.3240305781364441,-0.05246272683143616
1730553671954286000,6.7922861328125,-0.12083736807107925,0.34959617257118225,-0.018308691680431366
1730553671964312000,6.80231201171875,-0.09154346585273743,0.332552433013916,0.033887725323438644
1730553671974353400,6.812353515625,-0.01637795753777027,0.25419121980667114,0.11810771375894547
1730553671984381000,6.822380859375,0.03162410482764244,0.1300249993801117,0.20818647742271423
1730553671994423300,6.83242333984375,0.013981183059513569,0.08681648969650269,0.27269965410232544
1730553672004452400,6.842452392578125,-0.017975807189941406,0.1710364818572998,0.2892107665538788
1730553672014476000,6.85247607421875,-0.035019535571336746,0.237680122256279,0.26311254501342773
1730553672024504300,6.86250439453125,-0.060585130006074905,0.2904757261276245,0.21404525637626648
1730553672034524200,6.872524169921875,-0.07769543677568436,0.4002613127231598,0.1783599555492401
1730553672044551700,6.8825517578125,-0.06697652488946915,0.3997286856174469,0.17196854948997498
1730553672054584800,6.892584716796875,0.009187635034322739,0.29793235659599304,0.22895851731300354
1730553672064613000,6.902613037109375,0.08541837334632874,0.18435189127922058,0.32329821586608887
1730553672074633000,6.912633056640625,0.07263557612895966,0.07137060910463333,0.4080508351325989
1730553672084660500,6.922660400390625,0.03481980413198471,0.0053261648863554,0.4277576506137848
1730553672094691000,6.932691162109375,0.02523270808160305,0.0213046595454216,0.3760938346385956
1730553672104718800,6.94271875,0.02736317366361618,0.08894696086645126,0.29293906688690186
1730553672114753500,6.95275341796875,0.02736317366361618,0.2360822707414627,0.20765386521816254
1730553672124781800,6.96278173828125,0.038548119366168976,0.391206830739975,0.12769481539726257
1730553672134775600,6.972775634765625,0.02949363924562931,0.4114462435245514,0.04720313847064972
1730553672144800500,6.982800537109375,0.011850717477500439,0.4098483920097351,-0.029560215771198273
1730553672154854100,6.992854248046875,-0.015312724746763706,0.3975982367992401,-0.09560466557741165
1730553672164882000,7.0028818359375,-0.041410934180021286,0.2915409505367279,-0.14893288910388947
1730553672174914000,7.0129140625,-0.005725627299398184,0.15931890904903412,-0.1755637228488922
1730553672184942000,7.022942138671875,0.07583127915859222,-0.05599131062626839,-0.15159597992897034
1730553672194934800,7.032934814453125,0.1227681040763855,-0.29586848616600037,-0.1009308323264122
1730553672204959500,7.04295947265625,0.12756165862083435,-0.40671929717063904,-0.05299534276127815
1730553672215025000,7.05302490234375,0.09766855090856552,-0.32143405079841614,-0.001797580742277205
1730553672225053400,7.063053466796875,0.06571156531572342,-0.1306242048740387,0.06371425092220306
1730553672235095000,7.073094970703125,0.04121120274066925,0.07722939550876617,0.11864032596349716
1730553672245124900,7.083124755859375,0.021437814459204674,0.22969086468219757,0.145803764462471
1730553672255142100,7.09314208984375,0.0033288532868027687,0.27336543798446655,0.15379302203655243
1730553672265170700,7.103170654296875,-0.004660394508391619,0.23288656771183014,0.14846685528755188
1730553672275210800,7.113210693359375,0.0011983871227130294,0.12310098856687546,0.1452711522579193
1730553672285240600,7.123240478515625,0.000665770610794425,-0.002729659667238593,0.15272778272628784
1730553672295292200,7.133292236328125,-0.007323476951569319,0.013315413147211075,0.18208827078342438
1730553672305324000,7.143323974609375,-0.004127778112888336,0.17529740929603577,0.23108899593353271
1730553672315320600,7.153320556640625,0.023634858429431915,0.3794892728328705,0.31371113657951355
1730553672325349000,7.16334912109375,0.05186353251338005,0.5462648272514343,0.43201857805252075
1730553672335376600,7.173376708984375,0.09447285532951355,0.6710302233695984,0.5471968650817871
1730553672345405000,7.183405029296875,0.10938611626625061,0.6598452925682068,0.63248211145401
1730553672355428600,7.1934287109375,0.09660331904888153,0.57296222448349,0.6718957424163818
1730553672365456400,7.203456298828125,0.10139686614274979,0.511644721031189,0.678287148475647
1730553672375464200,7.213464111328125,0.12117026001214981,0.43754446506500244,0.6553846001625061
1730553672385490200,7.223490234375,0.16005125641822815,0.40718531608581543,0.6020563840866089
1730553672395516400,7.233516357421875,0.18295377492904663,0.4674375653266907,0.5247604250907898
1730553672405542400,7.24354248046875,0.1541924774646759,0.5388081669807434,0.4293554723262787
1730553672415598800,7.253598876953125,0.12063764035701752,0.5063185691833496,0.32383084297180176
1730553672425628000,7.2636279296875,0.16164910793304443,0.38588064908981323,0.2220345139503479
1730553672435648000,7.27364794921875,0.26930421590805054,0.27389803528785706,0.1564560979604721
1730553672445676000,7.283676025390625,0.3359478712081909,0.12256837636232376,0.13355359435081482
1730553672455708000,7.2937080078125,0.3061213493347168,-0.002729659667238593,0.14899946749210358
1730553672465736200,7.303736083984375,0.1968017965555191,-0.05705654248595238,0.2113821804523468
1730553672475754000,7.31375390625,0.08275528997182846,-0.06770887225866318,0.2785584330558777
1730553672485781200,7.32378125,0.020372580736875534,-0.029360484331846237,0.32436347007751465
1730553672495823600,7.33382373046875,-0.017975807189941406,-0.037882350385189056,0.3382114768028259
1730553672505852400,7.343852294921875,-0.03768261894583702,-0.17483137547969818,0.3206351399421692
1730553672515873800,7.353873779296875,-0.02916075475513935,-0.37689274549484253,0.2860150635242462
1730553672525902000,7.363902099609375,-0.01957365684211254,-0.5618438720703125,0.24866533279418945
1730553672535940400,7.3739404296875,-0.026497671380639076,-0.7179670333862305,0.20658862590789795
1730553672545969700,7.3839697265625,-0.05685681104660034,-0.7307498455047607,0.18528397381305695
1730553672555994400,7.393994384765625,-0.4507932960987091,-0.2574535012245178,0.5626427531242371
1730553672566023200,7.404023193359375,-0.9901341199874878,-0.13541774451732635,1.1435942649841309
1730553672576031200,7.41403125,-1.1175626516342163,-0.1508636325597763,1.6083687543869019
1730553672586058000,7.42405810546875,-0.9885362386703491,-0.24413809180259705,1.9692163467407227
1730553672596102000,7.434101806640625,-0.6533207297325134,-0.42642608284950256,2.17280912399292
1730553672606130400,7.44413037109375,-0.3334845006465912,-0.6028553247451782,2.1605589389801025
1730553672616156400,7.454156494140625,-0.19653549790382385,-0.6487269401550293,1.9617598056793213
1730553672626184700,7.464184814453125,-0.22849248349666595,-0.5570502877235413,1.6505119800567627
1730553672636218600,7.474218505859375,-0.3105820119380951,-0.410980224609375,1.2235532999038696
1730553672646247400,7.484247314453125,-0.32496264576911926,-0.2937380075454712,0.5445337891578674
1730553672656238600,7.494238525390625,-0.31697338819503784,-0.42642608284950256,-0.023168819025158882
1730553672666263600,7.504263671875,-0.3617797791957855,-0.5404726266860962,-0.4282236695289612
1730553672676305700,7.5143056640625,-0.4603804051876068,-0.5021241903305054,-0.716036319732666
1730553672686332400,7.52433251953125,-0.6320160627365112,-0.4626440107822418,-0.8141043186187744
1730553672696381200,7.534381103515625,-0.7945306897163391,-0.41577377915382385,-0.7426671385765076
1730553672706410000,7.544409912109375,-0.8430653810501099,-0.37209922075271606,-0.5785546898841858
1730553672716437000,7.55443701171875,-0.7908023595809937,-0.30865126848220825,-0.4149082601070404
1730553672726465800,7.5644658203125,-0.7641715407371521,-0.1311568170785904,-0.24433782696723938
1730553672736490800,7.57449072265625,-0.7386059761047363,-0.0005991935613565147,-0.07643046975135803
1730553672746519000,7.58451904296875,-0.7129737734794617,0.09220923483371735,0.08082455396652222
1730553672756542200,7.594542236328125,-0.8308151960372925,0.02663082629442215,0.3163742125034332
1730553672766570000,7.604570068359375,-0.9949942231178284,-0.2681058347225189,0.6346125602722168
1730553672776594000,7.614593994140625,-0.9965920448303223,-0.4962654411792755,0.8834776282310486
1730553672786621200,7.62462109375,-0.8228259086608887,-0.9130378365516663,0.9613062143325806
1730553672796662000,7.634662109375,-0.634146511554718,-1.395987868309021,0.9778173565864563
1730553672806690800,7.64469091796875,-0.5792204737663269,-1.549448013305664,1.0370043516159058
1730553672816710700,7.654710693359375,-0.6325486898422241,-1.8671537637710571,1.1100393533706665
1730553672826738700,7.66473876953125,-0.6106448173522949,-2.528064250946045,1.172888159751892
1730553672836768500,7.6747685546875,-0.46517395973205566,-3.3163366317749023,1.2230206727981567
1730553672846796800,7.684796875,-0.330288827419281,-3.8275153636932373,1.2496514320373535
1730553672856814600,7.694814697265625,-0.29407089948654175,-3.8211240768432617,1.2347382307052612
1730553672866841900,7.704841796875,-0.3334845006465912,-3.2817165851593018,1.1446595191955566
1730553672876872000,7.714871826171875,-0.47689151763916016,-2.2199456691741943,1.0082430839538574
1730553672886899200,7.724899169921875,-0.757780134677887,-0.9935294985771179,0.818498432636261
1730553672896931800,7.734931884765625,-1.0706257820129395,-0.05386084318161011,0.5247604250907898
1730553672906960000,7.7449599609375,-1.2796111106872559,0.5398734211921692,0.14260807633399963
1730553672916970000,7.754969970703125,-1.3851357698440552,0.9001885056495667,-0.25978371500968933
1730553672926996200,7.764996337890625,-1.4389300346374512,1.0574434995651245,-0.630218505859375
1730553672937047600,7.775047607421875,-1.453843355178833,1.0105066299438477,-0.9041830897331238
1730553672947076000,7.785076171875,-1.3883315324783325,0.8453289866447449,-1.0384690761566162
1730553672957081000,7.7950810546875,-1.238000512123108,0.681149959564209,-1.0550466775894165
1730553672967107300,7.805107421875,-1.0099074840545654,0.5926690101623535,-0.979881227016449
1730553672977154000,7.815154052734375,-0.6661035418510437,0.3794892728328705,-0.7991910576820374
1730553672987182300,7.825182373046875,-0.2983318269252777,0.1486665904521942,-0.46231111884117126
1730553672997221400,7.835221435546875,-0.040345702320337296,0.12203575670719147,0.006191667169332504
1730553673007251000,7.8452509765625,0.09234238415956497,0.18601632118225098,0.539740264415741
1730553673017281800,7.85528173828125,0.13821399211883545,0.2472672164440155,1.1020501852035522
1730553673027311600,7.8653115234375,0.1099187359213829,0.1502644270658493,1.6270103454589844
1730553673037335300,7.875335205078125,0.02090519852936268,-0.12370018661022186,2.0337295532226562
1730553673047364400,7.8853642578125,-0.08142375200986862,-0.43654581904411316,2.2660834789276123
1730553673057346300,7.89534619140625,-0.17629607021808624,-0.6406710743904114,2.292780876159668
1730553673067370800,7.905370849609375,-0.23861220479011536,-0.6774882078170776,2.091252088546753
1730553673077445400,7.9154453125,-0.26051604747772217,-0.5468640327453613,1.69365394115448
1730553673087475000,7.925474853515625,-0.26051604747772217,-0.2670406103134155,1.1622358560562134
1730553673097473300,7.935473388671875,-0.26211389899253845,0.10658987611532211,0.5642406344413757
1730553673107499500,7.94549951171875,-0.30632108449935913,0.483948677778244,-0.008721595630049706
1730553673117560800,7.955560791015625,-0.3953346014022827,0.8101097345352173,-0.4697677493095398
1730553673127590400,7.96559033203125,-0.5334154367446899,0.9817453622817993,-0.7688319087028503
1730553673137610000,7.97560986328125,-0.7017888426780701,0.9551145434379578,-0.8919329047203064
1730553673147638500,7.985638427734375,-0.8510546088218689,0.7765548825263977,-0.8513875007629395
1730553673157671700,7.995671630859375,-0.9544488191604614,0.4663723409175873,-0.6632407307624817
1730553673167701000,8.005700927734376,-1.0040487051010132,0.1715690940618515,-0.37489545345306396
1730553673177726500,8.0157265625,-1.005113959312439,-0.012316756881773472,-0.04500609636306763
1730553673187755300,8.02575537109375,-0.9789491295814514,-0.07782858610153198,0.2982652485370636
1730553673197779000,8.035779052734375,-0.9107742309570312,-0.047469448298215866,0.6175022721290588
1730553673207807200,8.04580712890625,-0.8111083507537842,0.021837277337908745,0.8749557733535767
1730553673217838600,8.055838623046874,-0.7135064005851746,0.08308817446231842,1.035406470298767
1730553673227867100,8.0658671875,-0.6228950023651123,0.11564435809850693,1.058841586112976
1730553673237882600,8.075882568359376,-0.5334154367446899,0.16571031510829926,0.9405341744422913
1730553673247910000,8.085909912109376,-0.45931515097618103,0.2803560197353363,0.7150376439094543
1730553673257944000,8.095944091796875,-0.4166392683982849,0.4412727653980255,0.44380271434783936
1730553673267972000,8.10597216796875,-0.40119338035583496,0.5206992030143738,0.11171631515026093
1730553673278005200,8.116005126953125,-0.4742284119129181,0.4722311198711395,-0.3296230435371399
1730553673288033500,8.126033447265625,-0.6106448173522949,0.44766417145729065,-0.8364742398262024
1730553673298055200,8.13605517578125,-0.6170362234115601,0.5857450366020203,-1.22881281375885
1730553673308083000,8.1460830078125,-0.420367568731308,0.8602422475814819,-1.4206879138946533
1730553673318067000,8.15606689453125,-0.19547025859355927,1.0041152238845825,-1.4441231489181519
1730553673328090400,8.16609033203125,-0.09900009632110596,0.9370055794715881,-1.2788788080215454
1730553673338159400,8.176159423828125,-0.09367392957210541,0.8255556225776672,-0.9286834597587585
1730553673348187400,8.1861875,-0.02703028731048107,0.7285528182983398,-0.5103132128715515
1730553673358203400,8.196203369140624,0.12543119490146637,0.618767261505127,-0.1974010020494461
1730553673368230100,8.206230224609374,0.2597171366214752,0.5121773481369019,-0.06524552404880524
1730553673378281500,8.216281494140626,0.339676171541214,0.45991435647010803,-0.1238999143242836
1730553673388310500,8.226310546875,0.43241801857948303,0.4189028739929199,-0.3605147898197174
1730553673398333400,8.23633349609375,0.5944666266441345,0.26431095600128174,-0.6894055008888245
1730553673408362000,8.246362060546875,0.8049832582473755,-0.009121057577431202,-0.9756202697753906
1730553673418391800,8.256391845703124,0.9952605366706848,-0.3384777903556824,-1.1515169143676758
1730553673428420600,8.266420654296875,1.041664719581604,-0.6732272505760193,-1.180810809135437
1730553673438435800,8.276435791015626,0.9899343848228455,-0.8565804958343506,-1.050785779953003
1730553673448463000,8.286463134765626,0.9339430332183838,-0.9418657422065735,-0.8754218220710754
1730553673458497300,8.296497314453125,0.8801487684249878,-0.9727574586868286,-0.7693645358085632
1730553673468525300,8.306525390625,0.8039180636405945,-0.9370721578598022,-0.7043187618255615
1730553673478559500,8.3165595703125,0.7346113324165344,-0.8501890897750854,-0.6493926644325256
1730553673488588000,8.326588134765625,0.7069152593612671,-0.7243584394454956,-0.6286206245422363
1730553673498611200,8.336611083984375,0.7303503751754761,-0.6055184006690979,-0.6760900616645813
1730553673508639200,8.34663916015625,0.8193639516830444,-0.4643084406852722,-0.6899381279945374
1730553673518681300,8.356681396484374,0.8769530653953552,-0.19300690293312073,-0.5241612195968628
1730553673528711000,8.3667109375,0.8518535494804382,-0.11358047276735306,-0.3743628263473511
1730553673538713600,8.376713623046875,0.7356765866279602,-0.3891429305076599,-0.5039218068122864
1730553673548740400,8.386740234375,0.6439999341964722,-0.674825131893158,-0.8892698287963867
1730553673558780700,8.39678076171875,0.5656387209892273,-0.2515947222709656,-1.3652292490005493
1730553673568808700,8.40680859375,0.5496602654457092,-0.007523208390921354,-1.1221563816070557
1730553673578841000,8.416841064453125,0.6941324472427368,0.2595174014568329,-0.7682993412017822
1730553673588869600,8.42686962890625,0.6930672526359558,0.2910083532333374,-0.6872750520706177
1730553673598895900,8.436895751953125,0.5709648728370667,0.3575854003429413,-0.761841356754303
1730553673608924200,8.446924072265626,0.6194995641708374,0.5079164505004883,-0.8834110498428345
1730553673618927600,8.456927734375,0.7953962087631226,0.6486603617668152,-0.9419988989830017
1730553673628953300,8.466953369140626,0.9371387362480164,0.7925333976745605,-0.8983243107795715
1730553673638990300,8.476990234375,1.0411320924758911,0.9402012825012207,-0.7986584305763245
1730553673649017300,8.487017333984374,1.133274793624878,1.1011180877685547,-0.6803510189056396
1730553673659061500,8.4970615234375,1.2111033201217651,1.222155213356018,-0.5236285924911499
1730553673669090000,8.507090087890624,1.2153643369674683,1.2029809951782227,-0.33494919538497925
1730553673679117000,8.517116943359374,1.0635020732879639,0.9327446818351746,-0.17077016830444336
1730553673689145300,8.527145263671875,0.7980592846870422,0.5308189392089844,-0.1244325339794159
1730553673699167700,8.537167724609375,0.5384752750396729,0.2153102308511734,-0.23794642090797424
1730553673709195500,8.547195556640625,0.33488261699676514,0.0031956990715116262,-0.389808714389801
1730553673719226000,8.55722607421875,0.1536598652601242,-0.03734973445534706,-0.46231111884117126
1730553673729254100,8.567254150390625,0.004926702938973904,0.03089175745844841,-0.5097805857658386
1730553673739271700,8.577271728515624,-0.02596505545079708,0.17583002150058746,-0.6286206245422363
1730553673749298700,8.587298583984374,0.0997990220785141,0.2600499987602234,-0.7949301600456238
1730553673759343600,8.597343505859374,0.3375457227230072,0.27443066239356995,-0.8967264890670776
1730553673769372400,8.607372314453125,0.6658372282981873,0.19986434280872345,-0.9830769300460815
1730553673779397000,8.617397216796874,1.079480528831482,0.4748941957950592,-1.1493864059448242
1730553673789425700,8.62742578125,1.467491626739502,1.0824764966964722,-1.2154308557510376
1730553673799453200,8.637453125,1.5735489130020142,0.9684299826622009,-1.2357368469238281
1730553673809481500,8.6474814453125,1.4472522735595703,1.0398671627044678,-1.195191502571106
1730553673819476500,8.6574765625,1.211635947227478,1.0611717700958252,-1.0678294897079468
1730553673829501400,8.66750146484375,0.9264864325523376,0.8570465445518494,-0.9238899350166321
1730553673839552500,8.677552490234374,0.7186328172683716,0.5985277891159058,-0.7554499506950378
1730553673849580000,8.687580078125,0.6546522974967957,0.2947366535663605,-0.5550529956817627
1730553673859599000,8.69759912109375,0.7037195563316345,0.06284874677658081,-0.3264273405075073
1730553673869625900,8.7076259765625,0.7799503207206726,-0.09114400297403336,-0.10838746279478073
1730553673879652000,8.717652099609374,0.8273531794548035,-0.13328728079795837,0.0824224054813385
1730553673889678800,8.727678955078124,0.8673660159111023,-0.05279561132192612,0.1916753649711609
1730553673899727600,8.7377275390625,0.9057143926620483,0.09647016227245331,0.17196854948997498
1730553673909756400,8.74775634765625,0.9419323205947876,0.2888778746128082,0.08455286920070648
1730553673919792000,8.757792236328125,0.9846081733703613,0.4764920473098755,0.005126433912664652
1730553673929821700,8.76782177734375,0.9654340147972107,0.48128560185432434,-0.08708280324935913
1730553673939836400,8.77783642578125,0.8982577323913574,0.35225924849510193,-0.11963898688554764
1730553673949864400,8.787864501953125,0.8124399185180664,0.2057231217622757,-0.07163692265748978
1730553673959905300,8.7979052734375,0.6989260315895081,0.029293907806277275,-0.02203700877726078
1730553673969934600,8.8079345703125,0.5800859332084656,-0.12370018661022186,0.047735754400491714
1730553673979954400,8.817954345703125,0.4921376705169678,-0.1962026059627533,0.15059731900691986
1730553673989983000,8.82798291015625,0.45372268557548523,-0.18122276663780212,0.22416497766971588
1730553673999999200,8.837999267578125,0.45212483406066895,-0.054926078766584396,0.24919794499874115
1730553674010026200,8.848026123046875,0.4681033492088318,0.1406773328781128,0.19753414392471313
1730553674020059600,8.8580595703125,0.4889419674873352,0.27496325969696045,0.08135717362165451
1730553674030087400,8.86808740234375,0.4905398190021515,0.3330850601196289,-0.029560215771198273
1730553674040121300,8.878121337890626,0.4569183886051178,0.30751946568489075,-0.08548495173454285
1730553674050149600,8.888149658203124,0.41803738474845886,0.1945381760597229,-0.08228924870491028
1730553674060140800,8.898140869140626,0.3593829870223999,0.02769605815410614,-0.03967992961406708
1730553674070165200,8.908165283203125,0.27835869789123535,-0.15832026302814484,-0.001797580742277205
1730553674080234000,8.91823388671875,0.20212796330451965,-0.34007564187049866,0.01844184659421444
1730553674090263000,8.928262939453125,0.16271434724330902,-0.4738955497741699,0.050931453704833984
1730553674100278300,8.9382783203125,0.17762760818004608,-0.5602459907531738,0.11224892735481262
1730553674110305800,8.948305908203125,0.21764041483402252,-0.6028553247451782,0.13781452178955078
1730553674120336600,8.958336669921875,0.23628200590610504,-0.5874094367027283,0.10479229688644409
1730553674130364700,8.96836474609375,0.24320600926876068,-0.5127765536308289,0.03228987753391266
1730553674140375600,8.97837548828125,0.25758665800094604,-0.41683900356292725,-0.07216953486204147
1730553674150401800,8.98840185546875,0.1978670358657837,-0.3123795986175537,-0.16224829852581024
1730553674160440300,8.9984404296875,-0.044606633484363556,-0.1295589655637741,-0.15159597992897034
1730553674170467800,9.0084677734375,-0.2540580630302429,-0.054926078766584396,-0.08495233207941055
1730553674180481000,9.01848095703125,-0.28288593888282776,-0.1855502724647522,-0.07483261823654175
1730553674190507300,9.02850732421875,-0.2551898956298828,-0.3438039720058441,-0.08814803510904312
1730553674200559900,9.038559814453125,-0.22636201977729797,-0.48081955313682556,-0.12123683094978333
1730553674210588700,9.048588623046875,-0.19919857382774353,-0.5826159119606018,-0.188879132270813
1730553674220614000,9.05861376953125,-0.1906767040491104,-0.6241599917411804,-0.2549901604652405
1730553674230642200,9.06864208984375,-0.2018616646528244,-0.6881405115127563,-0.24540305137634277
1730553674240670500,9.07867041015625,-0.21784014999866486,-0.8677654266357422,-0.03328853100538254
1730553674250699000,9.088698974609375,-0.21677492558956146,-0.7941977977752686,0.11970555782318115
1730553674260731400,9.0987314453125,-0.2338186502456665,-0.6961297988891602,0.06211639940738678
1730553674270760200,9.10876025390625,-0.2551898956298828,-0.596996545791626,-0.030092833563685417
1730553674280799500,9.118799560546876,-0.20452474057674408,-0.38275155425071716,-0.156389519572258
1730553674290829300,9.128829345703124,-0.15013128519058228,-0.20259401202201843,-0.316840261220932
1730553674300830500,9.13883056640625,-0.1480008065700531,-0.08848091959953308,-0.44260433316230774
1730553674310857500,9.148857421875,-0.15545743703842163,0.04793548583984375,-0.5278895497322083
1730553674320882200,9.158882080078126,-0.14107680320739746,0.2264951765537262,-0.5961310267448425
1730553674330909000,9.168908935546876,-0.10379364341497421,0.38481542468070984,-0.6238270998001099
1730553674340964600,9.178964599609374,-0.08941299468278885,0.43647924065589905,-0.5892069935798645
1730553674350994200,9.188994140625,-0.13947895169258118,0.36078110337257385,-0.4165061116218567
1730553674361020200,9.199020263671875,-0.1800243854522705,0.23341917991638184,-0.1569221466779709
1730553674371049500,9.209049560546875,-0.15439221262931824,0.1518622785806656,-0.04181039705872536
1730553674381079000,9.2190791015625,-0.14107680320739746,-0.004327509086579084,0.011517832055687904
1730553674391108400,9.2291083984375,-0.1805569976568222,-0.23614884912967682,0.09999874979257584
1730553674401109800,9.23910986328125,-0.2141118347644806,-0.43867626786231995,0.20392554998397827
1730553674411136300,9.24913623046875,-0.21943800151348114,-0.542603075504303,0.2577863931655884
1730553674421164800,9.259164794921874,-0.2018616646528244,-0.5026568174362183,0.2433391660451889
1730553674431191300,9.26919140625,-0.1800243854522705,-0.3352820873260498,0.17676210403442383
1730553674441238500,9.279238525390625,-0.14480511844158173,-0.13328728079795837,0.09893351793289185
1730553674451267300,9.289267333984375,-0.0846194475889206,0.03515268862247467,0.039213892072439194
1730553674461274400,9.2992744140625,-0.02703028731048107,0.12949238717556,-0.0023301972541958094
1730553674471300900,9.30930078125,0.004394086077809334,0.14813396334648132,-0.026897134259343147
1730553674481359600,9.319359619140625,0.02416747435927391,0.12043790519237518,-0.024766668677330017
1730553674491389400,9.329389404296874,0.034287188202142715,0.07030537724494934,-0.011384678073227406
1730553674501399800,9.33939990234375,0.03695027157664299,0.03408745676279068,0.0029959678649902344
1730553674511427600,9.349427490234374,0.04760260134935379,0.016511112451553345,0.014713531360030174
1730553674521468400,9.359468505859375,0.053461384028196335,-0.0005991935613565147,0.027496326714754105
1730553674531497500,9.36949755859375,0.041743818670511246,-0.025099553167819977,0.049333605915308
1730553674541522400,9.3795224609375,0.02523270808160305,-0.03149095177650452,0.07070484012365341
1730553674551551200,9.38955126953125,0.009187635034322739,-0.008055824786424637,0.08402025699615479
1730553674561578800,9.399578857421876,-0.007323476951569319,0.0159784946590662,0.09680305421352386
1730553674571607300,9.409607177734374,-0.023301972076296806,0.01384802907705307,0.11917294561862946
1730553674581605400,9.41960546875,-0.030758604407310486,0.013315413147211075,0.1559234857559204
1730553674591631000,9.429631103515625,-0.028628136962652206,0.04793548583984375,0.17409902811050415
1730553674601689900,9.43968994140625,-0.0238345880061388,0.0970027819275856,0.1585865616798401
1730553674611719000,9.449718994140625,-0.014247491955757141,0.15931890904903412,0.12929265201091766
1730553674621720300,9.45972021484375,0.0011983871227130294,0.20732097327709198,0.0936073511838913
1730553674631746300,9.469746337890625,0.010252867825329304,0.23022349178791046,0.07390054315328598
1730553674641808400,9.479808349609375,0.02090519852936268,0.20945143699645996,0.0723026916384697
1730553674651838200,9.489838134765625,0.027895789593458176,0.15772105753421783,0.09041165560483932
1730553674661869000,9.499869140625,0.020372580736875534,0.11031819134950638,0.10106398165225983
1730553674671899000,9.50989892578125,0.005991935729980469,0.08841434121131897,0.08402025699615479
1730553674681886500,9.519886474609375,-0.0009320789249613881,0.07616416364908218,0.04507267102599144
1730553674691912000,9.529911865234375,0.007057168986648321,0.07030537724494934,0.015778765082359314
1730553674701943800,9.53994384765625,0.018242115154862404,0.051663801074028015,0.02057231217622757
1730553674711970000,9.549969970703126,0.018242115154862404,0.0319569893181324,0.040279123932123184
1730553674722032000,9.5600322265625,0.013448567129671574,0.044207170605659485,0.045605290681123734
1730553674732062000,9.57006201171875,0.0011983871227130294,0.0639139786362648,0.0386812724173069
1730553674742072300,9.580072265625,-0.013714875094592571,0.06551183015108109,0.05146406963467598
1730553674752100000,9.59010009765625,-0.02063889056444168,0.02769605815410614,0.07869409024715424
1730553674762102800,9.600102783203125,-0.012117025442421436,-0.026697402819991112,0.09147688746452332
1730553674772128000,9.6101279296875,0.000665770610794425,-0.07037195563316345,0.0824224054813385
1730553674782177500,9.620177490234376,0.013981183059513569,-0.0650457888841629,0.05892070010304451
1730553674792205300,9.630205322265626,0.030026255175471306,-0.021903853863477707,0.025365861132740974
1730553674802225400,9.640225341796874,0.034287188202142715,0.0213046595454216,-0.004993279930204153
1730553674812252400,9.65025244140625,0.033221956342458725,0.055924732238054276,-0.027429750189185143
1730553674822288400,9.660288330078124,0.030026255175471306,0.07083799690008163,-0.03541899845004082
1730553674832316400,9.67031640625,0.019307348877191544,0.058055199682712555,-0.03328853100538254
1730553674842358300,9.680358154296876,0.000665770610794425,0.034620072692632675,-0.027429750189185143
1730553674852387600,9.6903876953125,-0.012117025442421436,0.01491326279938221,-0.01511299330741167
1730553674862403600,9.700403564453126,-0.020106272771954536,0.0005326165119186044,0.0003328853053972125
1730553674872431400,9.710431396484376,-0.02170412242412567,-0.009121057577431202,0.007256899960339069
1730553674882452200,9.7204521484375,-0.019041040912270546,-0.019773388281464577,0.01364829856902361
1730553674892479500,9.7304794921875,-0.004660394508391619,-0.01604507304728031,0.01311568170785904
1730553674902512600,9.7405126953125,0.011850717477500439,0.00852186419069767,0.020039696246385574
1730553674912540400,9.75054052734375,0.02949363924562931,0.041011471301317215,0.03015941008925438
1730553674922567400,9.7605673828125,0.03801550343632698,0.07563154399394989,0.02802894450724125
1730553674932595200,9.77059521484375,0.03375457227230072,0.11457912623882294,0.01311568170785904
1730553674942632000,9.7806318359375,0.017176883295178413,0.1385468691587448,-0.008188978768885136
1730553674952660700,9.79066064453125,-0.0003994623839389533,0.11138343065977097,-0.019373925402760506
1730553674962684400,9.800684326171876,-0.016910573467612267,0.036750540137290955,-0.0119172940030694
1730553674972712400,9.81071240234375,-0.038215234875679016,-0.04267589747905731,-0.0007323477184399962
1730553674982737400,9.8207373046875,-0.05259587988257408,-0.098667211830616,0.007256899960339069
1730553674992765200,9.83076513671875,-0.0504654161632061,-0.11304785311222076,0.011517832055687904
1730553675002803700,9.8408037109375,-0.03874785080552101,-0.08848091959953308,0.004593817517161369
1730553675012832800,9.850832763671875,-0.023301972076296806,-0.05652392655611038,-0.002862813649699092
1730553675022835000,9.8608349609375,0.0027962366584688425,-0.019773388281464577,-0.00019973119196947664
1730553675032861200,9.870861083984375,0.030026255175471306,0.025032976642251015,0.002463351469486952
1730553675042919700,9.880919677734376,0.041743818670511246,0.05645735189318657,-0.002862813649699092
1730553675052949200,9.89094921875,0.03481980413198471,0.04473978653550148,-0.007656362373381853
1730553675062960600,9.900960693359375,0.014513799920678139,-0.0069905915297567844,-0.002862813649699092
1730553675072988200,9.91098828125,-0.008388710208237171,-0.05652392655611038,0.005659050308167934
1730553675083025400,9.921025390625,-0.027562905102968216,-0.11145000159740448,0.006191667169332504
1730553675093054000,9.931053955078125,-0.04407401755452156,-0.1716356724500656,0.0008655018173158169
1730553675103078100,9.941078125,-0.02276935614645481,-0.2579861283302307,0.014180914498865604
1730553675113106200,9.951106201171875,-0.02916075475513935,-0.32196667790412903,0.015778765082359314
1730553675123131400,9.96113134765625,-0.06591129302978516,-0.2382793128490448,-0.05193011090159416
1730553675133159400,9.971159423828125,-0.058454662561416626,-0.11730878800153732,-0.10732222348451614
1730553675143196700,9.98119677734375,-0.039813082665205,-0.02456693723797798,-0.13987840712070465
1730553675153225500,9.9912255859375,-0.02703028731048107,0.05113118514418602,-0.13774794340133667
1730553675163256000,10.001256103515624,-0.007856093347072601,0.0852186381816864,-0.11537805199623108
1730553675173284900,10.011284912109375,0.009187635034322739,0.09274184703826904,-0.08921326696872711
1730553675183306200,10.02130615234375,0.010252867825329304,0.07722939550876617,-0.05193011090159416
1730553675193334500,10.03133447265625,-0.00359516148455441,0.025032976642251015,-0.0092542115598917
1730553675203370800,10.041370849609375,-0.02916075475513935,-0.04480636492371559,0.01258306484669447
1730553675213399800,10.05139990234375,-0.06005251035094261,-0.11038476973772049,0.022170161828398705
1730553675223418600,10.061418701171876,-0.08035851269960403,-0.16897258162498474,0.03548557683825493
1730553675233446700,10.07144677734375,-0.08781515061855316,-0.22070296108722687,0.059453319758176804
1730553675243479600,10.0814794921875,-0.08621729910373688,-0.2478664070367813,0.08615072071552277
1730553675253508000,10.091508056640626,-0.08195636421442032,-0.22443127632141113,0.08348763734102249
1730553675263532000,10.101531982421875,-0.07183665037155151,-0.1418091505765915,0.06211639940738678
1730553675273560000,10.11156005859375,-0.04620448127388954,-0.05226299539208412,0.043474823236465454
1730553675283564000,10.12156396484375,0.0038614696823060513,0.07030537724494934,-0.004993279930204153
1730553675293589500,10.131589599609375,0.032156720757484436,0.16943863034248352,-0.04127778112888336
1730553675303642000,10.14164208984375,0.03908073529601097,0.15718844532966614,-0.04287562891840935
1730553675313670400,10.15167041015625,0.03801550343632698,0.11138343065977097,-0.05299534276127815
1730553675323703800,10.161703857421875,0.03908073529601097,0.10019848495721817,-0.0583215095102787
1730553675333732900,10.17173291015625,0.057722315192222595,0.10126371681690216,-0.04607132822275162
1730553675343724500,10.181724609375,0.0790269747376442,0.0970027819275856,-0.018308691680431366
1730553675353749800,10.191749755859375,0.08435314148664474,0.058055199682712555,0.01631138101220131
1730553675363809500,10.2018095703125,0.07316819578409195,-0.01604507304728031,0.042409591376781464
1730553675373838300,10.21183837890625,0.056657079607248306,-0.0863504484295845,0.042409591376781464
1730553675383867100,10.2218671875,0.04227643460035324,-0.10452599078416824,0.01311568170785904
1730553675393895700,10.231895751953125,0.02842840552330017,-0.07729597389698029,-0.01511299330741167
1730553675403919600,10.241919677734375,0.023634858429431915,-0.04161066561937332,-0.03488638252019882
1730553675413948000,10.251947998046875,0.01877473294734955,-0.009653674438595772,-0.04713656008243561
1730553675423976000,10.261975830078125,0.015046416781842709,0.01171756349503994,-0.022636201232671738
1730553675434004200,10.272004150390625,0.01983996480703354,0.025032976642251015,-0.008721595630049706
1730553675444024300,10.2820244140625,0.03375457227230072,0.03728315606713295,0.0035285844933241606
1730553675454051800,10.2920517578125,0.06038539856672287,0.01171756349503994,0.03974650800228119
1730553675464080400,10.302080322265626,0.07529865950345993,-0.05599131062626839,0.0717700719833374
1730553675474108000,10.31210791015625,0.07423342764377594,-0.11571093648672104,0.08668334037065506
1730553675484148700,10.322148681640625,0.07476603984832764,-0.12742850184440613,0.09041165560483932
1730553675494177500,10.332177490234375,0.07210296392440796,-0.11571093648672104,0.07709623873233795
1730553675504202500,10.342202392578125,0.0790269747376442,-0.11411308497190475,0.058388084173202515
1730553675514231000,10.35223095703125,0.10832088440656662,-0.12583065032958984,0.058388084173202515
1730553675524253700,10.362253662109374,0.1440727710723877,-0.1316894292831421,0.07283531129360199
1730553675534281700,10.37228173828125,0.1749645173549652,-0.10825430601835251,0.07816147059202194
1730553675544308000,10.382307861328124,0.18242116272449493,-0.07410027086734772,0.061583783477544785
1730553675554335700,10.392335693359374,0.17123620212078094,-0.05599131062626839,0.03335510939359665
1730553675564375600,10.40237548828125,0.1552577167749405,-0.06025224179029465,0.022170161828398705
1730553675574404600,10.412404541015626,0.14886631071567535,-0.04959991201758385,0.017909230664372444
1730553675584428800,10.4224287109375,0.15099677443504333,-0.030958333984017372,0.007789516355842352
1730553675594457300,10.432457275390625,0.14726845920085907,-0.02456693723797798,-0.007656362373381853
1730553675604479500,10.4424794921875,0.13821399211883545,-0.024034319445490837,-0.029027599841356277
1730553675614507300,10.45250732421875,0.1318225860595703,-0.003794892691075802,-0.03967992961406708
1730553675624531500,10.462531494140626,0.12489857524633408,0.01384802907705307,-0.03328853100538254
1730553675634559000,10.47255908203125,0.1109839677810669,0.009587096981704235,-0.003395430278033018
1730553675644581600,10.48258154296875,0.09820117056369781,-0.015512456186115742,0.03015941008925438
1730553675654608600,10.492608642578125,0.08754883706569672,-0.03415403515100479,0.054127153009176254
1730553675664641500,10.5026416015625,0.07955959439277649,-0.05386084318161011,0.07975932210683823
1730553675674669300,10.51266943359375,0.06517894566059113,-0.08528521656990051,0.11331415921449661
1730553675684700200,10.5227001953125,0.04760260134935379,-0.11304785311222076,0.14420592784881592
1730553675694728200,10.532728271484375,0.04866783320903778,-0.12636326253414154,0.16231487691402435
1730553675704759000,10.542759033203126,0.06943988054990768,-0.13648298382759094,0.16557715833187103
1730553675714787300,10.552787353515624,0.09447285532951355,-0.1519288569688797,0.16344669461250305
1730553675724817000,10.56281689453125,0.12383333593606949,-0.1519288569688797,0.1553908735513687
1730553675734845200,10.57284521484375,0.1424749195575714,-0.14447222650051117,0.13142313063144684
1730553675744858000,10.582858154296876,0.15685556828975677,-0.12156971544027328,0.09200949966907501
1730553675754885000,10.592885009765626,0.17283405363559723,-0.09114400297403336,0.06264901906251907
1730553675764927700,10.602927734375,0.18401899933815002,-0.07942643761634827,0.057322852313518524
1730553675774956300,10.612956298828125,0.19467133283615112,-0.08901353180408478,0.0712374597787857
1730553675784983800,10.62298388671875,0.19999749958515167,-0.10985215753316879,0.09200949966907501
1730553675795012000,10.63301220703125,0.19094301760196686,-0.12156971544027328,0.10745538026094437
1730553675805003000,10.6430029296875,0.17283405363559723,-0.11411308497190475,0.1037270650267601
1730553675815027500,10.65302734375,0.15206201374530792,-0.09760197252035141,0.08828118443489075
1730553675825093400,10.66309326171875,0.12117026001214981,-0.08368737250566483,0.060518551617860794
1730553675835122000,10.673121826171876,0.08488575369119644,-0.06770887225866318,0.026431094855070114
1730553675845147000,10.68314697265625,0.055591847747564316,-0.04214328154921532,-0.007656362373381853
1730553675855175200,10.693175048828126,0.04547213390469551,-0.00113181013148278,-0.0199065413326025
1730553675865188600,10.703188720703125,0.04227643460035324,0.031424373388290405,-0.01564561016857624
1730553675875215400,10.71321533203125,0.03695027157664299,0.034620072692632675,-0.01511299330741167
1730553675885272800,10.72327294921875,0.040678586810827255,0.047402869910001755,-0.01031944528222084
1730553675895302700,10.733302734375,0.05825493112206459,0.06284874677658081,0.004593817517161369
1730553675905323000,10.743322998046875,0.089146688580513,0.06657706201076508,0.02376801148056984
1730553675915352000,10.75335205078125,0.12117026001214981,0.048468101769685745,0.04187697172164917
1730553675925375000,10.763375,0.15206201374530792,0.0213046595454216,0.05359453707933426
1730553675935403500,10.773403564453124,0.17017097771167755,0.00852186419069767,0.048800986260175705
1730553675945418800,10.783418701171875,0.17762760818004608,0.016511112451553345,0.03228987753391266
1730553675955445800,10.79344580078125,0.18827994167804718,0.04900071769952774,0.00991998240351677
1730553675965485800,10.80348583984375,0.19999749958515167,0.09540493041276932,-0.02203700877726078
1730553675975514000,10.81351416015625,0.2091185599565506,0.12416622787714005,-0.05139749497175217
1730553675985519400,10.823519287109375,0.22403182089328766,0.1183074414730072,-0.06844121962785721
1730553675995545600,10.833545654296875,0.2511952519416809,0.09054480493068695,-0.05725627392530441
1730553676005590300,10.84359033203125,0.2826196253299713,0.056989967823028564,-0.03382114693522453
1730553676015618300,10.853618408203126,0.3087844252586365,0.039946239441633224,-0.02203700877726078
1730553676025642000,10.86364208984375,0.33381739258766174,0.02982652559876442,-0.018308691680431366
1730553676035669500,10.87366943359375,0.37642672657966614,0.021837277337908745,-0.00019973119196947664
1730553676045698800,10.88369873046875,0.43188542127609253,0.01704372838139534,0.03228987753391266
1730553676055726300,10.893726318359375,0.48195135593414307,0.01171756349503994,0.058388084173202515
1730553676065722600,10.90372265625,0.5240946412086487,-0.015512456186115742,0.07922670245170593
1730553676075747300,10.913747314453126,0.5565842390060425,-0.04533898085355759,0.09467258304357529
1730553676085812000,10.92381201171875,0.58274906873703,-0.06664364039897919,0.09200949966907501
1730553676095840500,10.933840576171875,0.6008579730987549,-0.08262213319540024,0.07496577501296997
1730553676105866200,10.9438662109375,0.6136407852172852,-0.07463289052248001,0.04613790661096573
1730553676115894500,10.95389453125,0.6338801980018616,-0.026164786890149117,0.018974462524056435
1730553676125924400,10.96392431640625,0.6551848649978638,0.0021304660476744175,0.008322132751345634
1730553676135952600,10.97395263671875,0.7026543617248535,0.0159784946590662,0.022170161828398705
1730553676145980700,10.983980712890625,0.7661022543907166,0.04900071769952774,0.05572500079870224
1730553676156009000,10.994009033203126,0.8209617733955383,0.05432688444852829,0.0930747389793396
1730553676166027800,11.00402783203125,0.8523861765861511,0.019706811755895615,0.10479229688644409
1730553676176055300,11.01405517578125,0.853983998298645,-0.011784140020608902,0.09786828607320786
1730553676186086400,11.02408642578125,0.8588441014289856,-0.008588441647589207,0.08029194176197052
1730553676196114200,11.0341142578125,0.8753552436828613,0.02876129187643528,0.054127153009176254
1730553676206141000,11.044140869140625,0.8892032504081726,0.09107742458581924,0.01950708031654358
1730553676216168700,11.054168701171875,0.9078448414802551,0.17955833673477173,-0.029027599841356277
1730553676226204000,11.064203857421875,0.948922872543335,0.2904757261276245,-0.08495233207941055
1730553676236232200,11.074232177734375,1.0032497644424438,0.39280468225479126,-0.12709560990333557
1730553676246249000,11.0842490234375,1.0507192611694336,0.42582690715789795,-0.1553242951631546
1730553676256276000,11.09427587890625,1.0826761722564697,0.375760942697525,-0.17077016830444336
1730553676266311400,11.1043115234375,1.08640456199646,0.31923702359199524,-0.18461820483207703
1730553676276339500,11.11433935546875,1.0666977167129517,0.2840843200683594,-0.20166192948818207
1730553676286388200,11.12438818359375,1.0362720489501953,0.23341917991638184,-0.20112931728363037
1730553676296418600,11.13441845703125,1.0112390518188477,0.18921200931072235,-0.18302035331726074
1730553676306417400,11.14441748046875,1.0053802728652954,0.1513296663761139,-0.16437877714633942
1730553676316444400,11.1544443359375,1.0048476457595825,0.13428594172000885,-0.15851998329162598
1730553676326498300,11.164498291015626,0.9973909854888916,0.15931890904903412,-0.16810709238052368
1730553676336528000,11.17452783203125,0.9984562397003174,0.21371237933635712,-0.18142250180244446
1730553676346550500,11.184550537109375,1.0139020681381226,0.24460414052009583,-0.18408557772636414
1730553676356579600,11.19457958984375,1.0523170232772827,0.20252743363380432,-0.1989988386631012
1730553676366603500,11.204603515625,1.0405329465866089,0.08841434121131897,-0.17290063202381134
1730553676376632000,11.214632080078125,0.97076016664505,-0.05226299539208412,-0.12975870072841644
1730553676386659000,11.2246591796875,0.8790835738182068,-0.15991811454296112,-0.15745475888252258
1730553676396687400,11.234687255859376,0.8049832582473755,-0.19194167852401733,-0.2203700840473175
1730553676406725000,11.24472509765625,0.7948635816574097,-0.16524426639080048,-0.28002312779426575
1730553676416754400,11.25475439453125,0.8449295163154602,-0.10665645450353622,-0.36477574706077576
1730553676426771500,11.264771484375,0.916366696357727,-0.017642922699451447,-0.5124436616897583
1730553676436799500,11.274799560546874,0.9659666419029236,0.05113118514418602,-0.7597108483314514
1730553676446829600,11.28482958984375,0.9766189455986023,-0.002729659667238593,-0.9857400059700012
1730553676456857900,11.29485791015625,0.9936626553535461,-0.17696183919906616,-1.0933951139450073
1730553676466897200,11.304897216796874,0.9073122143745422,-0.3667064607143402,-0.8519201278686523
1730553676476926500,11.314926513671875,0.381220281124115,-0.1524614691734314,0.3611805737018585
1730553676486937600,11.3249375,0.29700028896331787,-0.18069015443325043,0.5509251952171326
1730553676496965000,11.334965087890625,0.44147250056266785,-0.16577689349651337,0.426692396402359
1730553676506971000,11.344970947265624,0.40738505125045776,-0.2068549394607544,0.3942027986049652
1730553676516996400,11.354996337890626,0.4233635365962982,-0.3059881925582886,0.45285719633102417
1730553676527055000,11.36505517578125,0.5539211630821228,-0.5479292273521423,0.4842815697193146
1730553676537084000,11.375083984375,0.699458658695221,-0.5154396295547485,0.4501941204071045
1730553676547112000,11.38511181640625,0.8513209223747253,-0.19247429072856903,0.3947354257106781
1730553676557140500,11.395140380859376,0.8828118443489075,0.02450035884976387,0.28228676319122314
1730553676567160600,11.40516064453125,0.8806813955307007,0.13055762648582458,0.23002375662326813
1730553676577188600,11.415188720703124,0.8796161413192749,0.20306004583835602,0.20978432893753052
1730553676587223600,11.4252236328125,0.8769530653953552,0.2669740319252014,0.16557715833187103
1730553676597252000,11.435252197265624,0.9035838842391968,0.3346829116344452,0.11224892735481262
1730553676607283200,11.445283203125,0.9505207538604736,0.41410934925079346,0.07390054315328598
1730553676617312000,11.45531201171875,1.0032497644424438,0.45938172936439514,0.04507267102599144
1730553676627333600,11.465333740234374,1.0698933601379395,0.38215234875679016,0.02270277962088585
1730553676637361700,11.475361572265625,1.1338739395141602,0.2664414048194885,0.008854749612510204
1730553676647389200,11.48538916015625,1.19565749168396,0.23395180702209473,0.005126433912664652
1730553676657417200,11.495417236328125,1.2356703281402588,0.283019095659256,-0.025831900537014008
1730553676667448600,11.505448486328126,1.2292789220809937,0.32669365406036377,-0.13082392513751984
1730553676677476900,11.515476806640624,1.188200831413269,0.30964991450309753,-0.2656424939632416
1730553676687477500,11.5254775390625,1.1610374450683594,0.3123130202293396,-0.36743882298469543
1730553676697503200,11.535503173828126,1.1525155305862427,0.39493513107299805,-0.44047385454177856
1730553676707559200,11.54555908203125,1.133274793624878,0.46797019243240356,-0.467637300491333
1730553676717588000,11.555587890625,1.1311442852020264,0.4119788706302643,-0.4255605936050415
1730553676727616300,11.5656162109375,1.165298342704773,0.2707023322582245,-0.3503950834274292
1730553676737644800,11.575644775390625,1.2153643369674683,0.1406773328781128,-0.2725664973258972
1730553676747654100,11.585654052734375,1.2409964799880981,0.0047935484908521175,-0.2102503627538681
1730553676757681000,11.595680908203125,1.2238861322402954,-0.10079767554998398,-0.1675744652748108
1730553676767691500,11.60569140625,1.2057771682739258,-0.15778763592243195,-0.15319383144378662
1730553676777716500,11.615716552734375,1.2105708122253418,-0.15778763592243195,-0.15798737108707428
1730553676787762400,11.625762451171875,1.2447247505187988,-0.08421998471021652,-0.156389519572258
1730553676797789700,11.635789794921875,1.302247405052185,0.028228675946593285,-0.14840027689933777
1730553676807829200,11.645829345703126,1.3289448022842407,0.11191604286432266,-0.12816084921360016
1730553676817857800,11.65585791015625,1.3321404457092285,0.0852186381816864,-0.04234301298856735
1730553676827880000,11.6658798828125,1.3433253765106201,-0.012849373742938042,0.06797518581151962
1730553676837908000,11.675907958984375,1.341727614402771,-0.06344794481992722,0.10905323177576065
1730553676847947000,11.685947021484376,1.3236186504364014,-0.04587159678339958,0.08561810106039047
1730553676857976000,11.69597607421875,1.2564423084259033,0.04154408723115921,0.012050448916852474
1730553676867996400,11.705996337890625,1.1695592403411865,0.16464507579803467,-0.07749570161104202
1730553676878024700,11.716024658203125,1.116763710975647,0.23448441922664642,-0.1244325339794159
1730553676888039200,11.7260390625,1.0768173933029175,0.23288656771183014,-0.12070421874523163
1730553676898066000,11.73606591796875,1.072556495666504,0.2371474951505661,-0.08868064731359482
1730553676908102700,11.7461025390625,1.111970067024231,0.23981058597564697,-0.029560215771198273
1730553676918130400,11.75613037109375,1.1477220058441162,0.18921200931072235,0.049866221845149994
1730553676928158000,11.766157958984374,1.148787260055542,0.11670958995819092,0.12716218829154968
1730553676938185700,11.776185791015624,1.1397327184677124,0.0846860259771347,0.18475134670734406
1730553676948194300,11.7861943359375,1.141330599784851,0.13428594172000885,0.20445816218852997
1730553676958220000,11.796219970703126,1.1429284811019897,0.27230018377304077,0.14793424308300018
1730553676968266200,11.806266357421874,1.1727550029754639,0.40345701575279236,0.055192384868860245
1730553676978294000,11.8162939453125,1.2409964799880981,0.47968775033950806,0.008322132751345634
1730553676988341500,11.826341552734375,1.309171438217163,0.4860791563987732,-0.014580377377569675
1730553676998371300,11.836371337890625,1.3561081886291504,0.47116589546203613,-0.07483261823654175
1730553677008392000,11.846391845703126,1.3784781694412231,0.4653070867061615,-0.14893288910388947
1730553677018420700,11.856420654296874,1.3869999647140503,0.429555207490921,-0.19314005970954895
1730553677028441000,11.866441162109375,1.3987175226211548,0.30485638976097107,-0.1771615743637085
1730553677038469000,11.87646923828125,1.4355345964431763,0.13588379323482513,-0.1009308323264122
1730553677048507400,11.88650732421875,1.4626981019973755,-0.06930672377347946,-0.0012649642303586006
1730553677058536400,11.896536376953126,1.4589698314666748,-0.37209922075271606,0.10905323177576065
1730553677068557300,11.906557373046875,1.436599850654602,-0.6892057657241821,0.1890122890472412
1730553677078585300,11.91658544921875,1.3624995946884155,-0.9178314208984375,0.19966460764408112
1730553677088613600,11.926613525390625,1.2132338285446167,-0.8330788016319275,0.09786828607320786
1730553677098642000,11.936641845703125,1.0762847661972046,-0.40565404295921326,-0.014580377377569675
1730553677108673800,11.946673828125,0.9920648336410522,0.06977276504039764,-0.0801587849855423
1730553677118702600,11.95670263671875,0.9413996934890747,0.5009924173355103,-0.14307411015033722
1730553677128730000,11.966730224609375,0.9590426087379456,0.8400028347969055,-0.19100959599018097
1730553677138758700,11.976758544921875,1.062969446182251,1.0324105024337769,-0.22622886300086975
1730553677148782000,11.986781982421874,1.2057771682739258,1.0963245630264282,-0.21291345357894897
1730553677158810000,11.99681005859375,1.3123670816421509,0.9897346496582031,-0.10199606418609619
1730553677168846600,12.0068466796875,1.3225533962249756,0.674225926399231,0.04613790661096573
1730553677178875400,12.01687548828125,1.2633663415908813,0.19666863977909088,0.1564560979604721
1730553677188892700,12.026892578125,1.1935269832611084,-0.34007564187049866,0.18847966194152832
1730553677198920400,12.03692041015625,1.1316769123077393,-0.8320135474205017,0.1255643367767334
1730553677208924000,12.046923828125,1.1274160146713257,-1.1374691724777222,0.01524614728987217
1730553677218949000,12.05694921875,1.134939193725586,-1.2840052843093872,-0.09560466557741165
1730553677229009200,12.067009033203124,1.1466567516326904,-1.3005828857421875,-0.18621604144573212
1730553677239038000,12.077037841796875,1.1220898628234863,-1.0868040323257446,-0.23315288126468658
1730553677249063200,12.087063232421874,1.118361473083496,-0.6971949934959412,-0.17449848353862762
1730553677259091700,12.097091796875,1.1082417964935303,-0.25319257378578186,-0.03222329914569855
1730553677269120800,12.107120849609375,1.0666977167129517,0.2573869228363037,0.13355359435081482
1730553677279149000,12.117149169921875,1.0378698110580444,0.6838130354881287,0.33501577377319336
1730553677289175800,12.12717578125,0.994195282459259,0.8762207627296448,0.5434685945510864
1730553677299204000,12.1372041015625,0.8636376857757568,0.9076451063156128,0.6356778144836426
1730553677309222700,12.14722265625,0.6813496947288513,0.7712287306785583,0.546664297580719
