time,seconds_elapsed,z,y,x
1730553665265652700,0.10365283203125,0.004593817517161369,-0.008388710208237171,-0.006591129116714001
1730553665275654000,0.11365380859375,-0.0007323477184399962,-0.008921326138079166,-0.0007323477184399962
1730553665285720000,0.123719970703125,-0.00019973119196947664,0.0017310036346316338,-0.0007323477184399962
1730553665295731700,0.133731689453125,0.0008655018173158169,0.0033288532868027687,-0.0012649642303586006
1730553665305732900,0.14373291015625,0.0008655018173158169,-0.0003994623839389533,-0.001797580742277205
1730553665315759900,0.153759765625,0.0003328853053972125,0.0001331541279796511,-0.00019973119196947664
1730553665325811700,0.163811767578125,0.0003328853053972125,0.0017310036346316338,0.0003328853053972125
1730553665335838700,0.173838623046875,-0.00019973119196947664,0.000665770610794425,0.0008655018173158169
1730553665345871600,0.18387158203125,-0.0007323477184399962,-0.0009320789249613881,-0.0012649642303586006
1730553665355900400,0.193900390625,-0.00019973119196947664,-0.0025299284607172012,0.0008655018173158169
1730553665365928000,0.203927978515625,-0.00019973119196947664,-0.0003994623839389533,0.0013981183292344213
1730553665375956200,0.213956298828125,-0.0007323477184399962,0.0017310036346316338,-0.00019973119196947664
1730553665386007800,0.2240078125,0.0035285844933241606,-0.0009320789249613881,0.0013981183292344213
1730553665396045600,0.234045654296875,0.0008655018173158169,-0.0014646954368799925,-0.00019973119196947664
1730553665406030000,0.244030029296875,-0.001797580742277205,0.0001331541279796511,-0.00019973119196947664
1730553665416046300,0.25404638671875,0.0003328853053972125,0.000665770610794425,-0.00019973119196947664
1730553665426105600,0.264105712890625,-0.00019973119196947664,-0.0003994623839389533,-0.0007323477184399962
1730553665436139300,0.27413916015625,-0.00019973119196947664,0.0001331541279796511,-0.00019973119196947664
1730553665446152000,0.28415185546875,-0.001797580742277205,0.0017310036346316338,-0.00019973119196947664
1730553665456177200,0.29417724609375,-0.00019973119196947664,0.0017310036346316338,-0.0007323477184399962
1730553665466206000,0.3042060546875,-0.00019973119196947664,-0.0003994623839389533,0.0008655018173158169
1730553665476232700,0.314232666015625,0.0008655018173158169,-0.0003994623839389533,0.0008655018173158169
1730553665486242800,0.324242919921875,0.0008655018173158169,0.000665770610794425,-0.00019973119196947664
1730553665496263000,0.334262939453125,-0.0007323477184399962,-0.0009320789249613881,-0.0007323477184399962
1730553665506318300,0.344318359375,-0.0007323477184399962,-0.0014646954368799925,0.0019307348411530256
1730553665516352800,0.354352783203125,-0.00019973119196947664,0.000665770610794425,0.0008655018173158169
1730553665526381300,0.36438134765625,0.0003328853053972125,0.0017310036346316338,0.0003328853053972125
1730553665536413400,0.374413330078125,-0.0012649642303586006,0.0017310036346316338,-0.0007323477184399962
1730553665546432800,0.384432861328125,-0.00019973119196947664,-0.0003994623839389533,0.0003328853053972125
1730553665556459500,0.39445947265625,-0.0012649642303586006,0.000665770610794425,0.0003328853053972125
1730553665566489000,0.404489013671875,0.0003328853053972125,0.000665770610794425,-0.0012649642303586006
1730553665576517000,0.41451708984375,0.0008655018173158169,0.0011983871227130294,-0.0012649642303586006
1730553665586562800,0.424562744140625,-0.001797580742277205,0.0017310036346316338,-0.0023301972541958094
1730553665596597800,0.43459765625,-0.0012649642303586006,0.0001331541279796511,-0.00019973119196947664
1730553665606620400,0.444620361328125,-0.0007323477184399962,0.0001331541279796511,0.0003328853053972125
1730553665616650200,0.454650146484375,-0.001797580742277205,0.0011983871227130294,-0.001797580742277205
1730553665626662100,0.464662109375,-0.0007323477184399962,0.0011983871227130294,-0.001797580742277205
1730553665636684800,0.474684814453125,-0.0007323477184399962,0.0001331541279796511,-0.001797580742277205
1730553665646730000,0.48472998046875,-0.0012649642303586006,-0.001997311832383275,0.0003328853053972125
1730553665656755000,0.4947548828125,-0.0007323477184399962,0.0001331541279796511,0.0003328853053972125
1730553665666763000,0.504762939453125,-0.0023301972541958094,0.000665770610794425,0.0008655018173158169
1730553665676786400,0.514786376953125,-0.0007323477184399962,0.0001331541279796511,0.0003328853053972125
1730553665686837200,0.524837158203125,0.0013981183292344213,0.000665770610794425,0.0008655018173158169
1730553665696863500,0.534863525390625,0.0003328853053972125,0.000665770610794425,-0.00019973119196947664
1730553665706892300,0.544892333984375,-0.0007323477184399962,0.0001331541279796511,-0.001797580742277205
1730553665716918800,0.554918701171875,-0.00019973119196947664,0.000665770610794425,0.0003328853053972125
1730553665726954000,0.5649541015625,-0.00019973119196947664,0.000665770610794425,-0.001797580742277205
1730553665736981200,0.574981201171875,-0.00019973119196947664,0.0001331541279796511,-0.002862813649699092
1730553665746984200,0.584984130859375,0.0003328853053972125,0.0011983871227130294,-0.0012649642303586006
1730553665757009200,0.595009033203125,-0.00019973119196947664,0.000665770610794425,0.0008655018173158169
1730553665767067600,0.605067626953125,-0.001797580742277205,0.0001331541279796511,-0.00019973119196947664
1730553665777096000,0.615095947265625,-0.00019973119196947664,-0.0003994623839389533,0.0003328853053972125
1730553665787120000,0.6251201171875,0.0003328853053972125,0.0017310036346316338,-0.0007323477184399962
1730553665797148000,0.63514794921875,-0.0007323477184399962,0.0011983871227130294,-0.001797580742277205
1730553665807180000,0.645179931640625,0.0008655018173158169,0.0001331541279796511,-0.0007323477184399962
1730553665817208000,0.6552080078125,0.0019307348411530256,-0.0009320789249613881,0.0003328853053972125
1730553665827214600,0.665214599609375,-0.00019973119196947664,0.0001331541279796511,0.0013981183292344213
1730553665837240800,0.67524072265625,-0.001797580742277205,0.000665770610794425,-0.00019973119196947664
1730553665847287300,0.685287353515625,-0.0012649642303586006,-0.0003994623839389533,-0.00019973119196947664
1730553665857315600,0.695315673828125,-0.001797580742277205,-0.0003994623839389533,0.0008655018173158169
1730553665867338800,0.7053388671875,0.0003328853053972125,0.0011983871227130294,-0.0007323477184399962
1730553665877366500,0.715366455078125,0.0003328853053972125,-0.0014646954368799925,-0.00019973119196947664
1730553665887396600,0.725396728515625,-0.001797580742277205,-0.001997311832383275,-0.0007323477184399962
1730553665897424600,0.735424560546875,0.0003328853053972125,-0.0003994623839389533,-0.00019973119196947664
1730553665907451100,0.745451171875,0.0003328853053972125,0.0001331541279796511,0.0003328853053972125
1730553665917479000,0.75547900390625,-0.0007323477184399962,-0.0009320789249613881,0.0013981183292344213
1730553665927519500,0.76551953125,0.0029959678649902344,-0.0003994623839389533,0.0003328853053972125
1730553665937548500,0.775548583984375,-0.0007323477184399962,-0.0009320789249613881,-0.00019973119196947664
1730553665947564500,0.785564453125,-0.0012649642303586006,0.0001331541279796511,-0.0007323477184399962
1730553665957592000,0.795592041015625,-0.0007323477184399962,-0.0009320789249613881,-0.00019973119196947664
1730553665967622700,0.80562255859375,0.0013981183292344213,0.000665770610794425,-0.00019973119196947664
1730553665977650700,0.815650634765625,0.0008655018173158169,-0.0003994623839389533,-0.00019973119196947664
1730553665987669200,0.825669189453125,-0.00019973119196947664,0.0001331541279796511,0.0003328853053972125
1730553665997696300,0.8356962890625,-0.00019973119196947664,-0.0003994623839389533,0.002463351469486952
1730553666007712500,0.84571240234375,0.0019307348411530256,0.000665770610794425,0.0008655018173158169
1730553666017738500,0.855738525390625,0.0008655018173158169,0.0001331541279796511,0.0003328853053972125
1730553666027779800,0.86577978515625,-0.0007323477184399962,-0.0003994623839389533,0.0003328853053972125
1730553666037807400,0.875807373046875,-0.00019973119196947664,-0.0009320789249613881,0.0019307348411530256
1730553666047842800,0.8858427734375,-0.0012649642303586006,0.000665770610794425,0.0008655018173158169
1730553666057871000,0.89587109375,0.0003328853053972125,0.000665770610794425,0.0008655018173158169
1730553666067902500,0.90590234375,-0.0012649642303586006,0.0001331541279796511,0.0008655018173158169
1730553666077931300,0.91593115234375,-0.0012649642303586006,0.0001331541279796511,0.0019307348411530256
1730553666087955200,0.925955078125,0.0003328853053972125,-0.0003994623839389533,0.0003328853053972125
1730553666097983500,0.9359833984375,-0.00019973119196947664,0.0001331541279796511,0.0008655018173158169
1730553666108014000,0.94601416015625,-0.00019973119196947664,0.0011983871227130294,-0.0012649642303586006
1730553666118042600,0.956042724609375,-0.0007323477184399962,0.000665770610794425,-0.0007323477184399962
1730553666128053200,0.96605322265625,-0.00019973119196947664,-0.0003994623839389533,-0.00019973119196947664
1730553666138079700,0.976079833984375,-0.00019973119196947664,-0.0009320789249613881,-0.0012649642303586006
1730553666148123400,0.986123291015625,0.0003328853053972125,0.0001331541279796511,-0.0007323477184399962
1730553666158151700,0.996151611328125,-0.0012649642303586006,-0.0003994623839389533,0.0013981183292344213
1730553666168173800,1.006173828125,-0.00019973119196947664,0.0001331541279796511,0.0013981183292344213
1730553666178201600,1.01620166015625,-0.0007323477184399962,0.0001331541279796511,-0.0007323477184399962
1730553666188237800,1.02623779296875,-0.00019973119196947664,0.000665770610794425,-0.0007323477184399962
1730553666198266400,1.036266357421875,0.0003328853053972125,-0.0014646954368799925,0.0013981183292344213
1730553666208297500,1.04629736328125,0.0003328853053972125,-0.001997311832383275,0.0003328853053972125
1730553666218326300,1.056326171875,-0.001797580742277205,0.000665770610794425,0.0019307348411530256
1730553666228340200,1.06634033203125,-0.0012649642303586006,-0.0003994623839389533,0.0003328853053972125
1730553666238367500,1.076367431640625,-0.0007323477184399962,0.0001331541279796511,-0.00019973119196947664
1730553666248403000,1.08640283203125,-0.0012649642303586006,0.00226362026296556,0.0008655018173158169
1730553666258431000,1.096430908203125,-0.0012649642303586006,0.0001331541279796511,-0.0007323477184399962
1730553666268433200,1.10643310546875,-0.0007323477184399962,-0.0009320789249613881,-0.0012649642303586006
1730553666278458600,1.116458740234375,-0.0007323477184399962,-0.0009320789249613881,0.0013981183292344213
1730553666288511500,1.126511474609375,-0.0007323477184399962,0.0001331541279796511,0.0003328853053972125
1730553666298539800,1.136539794921875,-0.00019973119196947664,0.0001331541279796511,-0.001797580742277205
1730553666308578800,1.146578857421875,-0.0023301972541958094,0.000665770610794425,-0.0012649642303586006
1730553666318608100,1.156608154296875,-0.0012649642303586006,-0.0003994623839389533,-0.00019973119196947664
1730553666328612400,1.1666123046875,-0.00019973119196947664,0.0001331541279796511,-0.00019973119196947664
1730553666338639000,1.17663916015625,-0.0012649642303586006,0.0017310036346316338,-0.0012649642303586006
1730553666348682500,1.1866826171875,-0.0007323477184399962,0.000665770610794425,-0.00019973119196947664
1730553666358711000,1.1967109375,-0.0023301972541958094,0.0017310036346316338,0.0013981183292344213
1730553666368741400,1.206741455078125,-0.0012649642303586006,-0.0003994623839389533,0.0003328853053972125
1730553666378770000,1.21677001953125,0.0019307348411530256,-0.0003994623839389533,-0.00019973119196947664
1730553666388791300,1.226791259765625,0.0008655018173158169,0.0011983871227130294,0.0008655018173158169
1730553666398819300,1.2368193359375,-0.00019973119196947664,0.0001331541279796511,-0.0007323477184399962
1730553666408859000,1.24685888671875,-0.0012649642303586006,-0.0003994623839389533,-0.0007323477184399962
1730553666418888000,1.256887939453125,-0.0007323477184399962,0.0011983871227130294,-0.00019973119196947664
1730553666428902100,1.266902099609375,0.0003328853053972125,0.0001331541279796511,-0.00019973119196947664
1730553666438930000,1.276929931640625,-0.00019973119196947664,-0.0003994623839389533,0.0003328853053972125
1730553666448943900,1.28694384765625,-0.0012649642303586006,0.0001331541279796511,0.0013981183292344213
1730553666458970000,1.29697021484375,-0.00019973119196947664,0.0017310036346316338,-0.00019973119196947664
1730553666469023000,1.30702294921875,0.0013981183292344213,-0.0009320789249613881,0.0003328853053972125
1730553666479052000,1.317052001953125,0.0008655018173158169,-0.0009320789249613881,0.0008655018173158169
1730553666489054500,1.327054443359375,0.0003328853053972125,-0.0003994623839389533,0.0003328853053972125
1730553666499080700,1.337080810546875,-0.0012649642303586006,-0.0009320789249613881,0.0003328853053972125
1730553666509142300,1.347142333984375,-0.00019973119196947664,-0.0003994623839389533,0.0008655018173158169
1730553666519172000,1.357172119140625,-0.00019973119196947664,0.000665770610794425,-0.0012649642303586006
1730553666529150000,1.36714990234375,-0.00019973119196947664,-0.0009320789249613881,-0.0012649642303586006
1730553666539174700,1.377174560546875,-0.0012649642303586006,-0.0009320789249613881,-0.0007323477184399962
1730553666549241300,1.387241455078125,-0.00019973119196947664,-0.0009320789249613881,-0.0007323477184399962
1730553666559270400,1.3972705078125,-0.00019973119196947664,0.0011983871227130294,-0.0012649642303586006
1730553666569299000,1.407298828125,-0.0007323477184399962,0.000665770610794425,0.0008655018173158169
1730553666579327700,1.41732763671875,-0.0007323477184399962,0.0011983871227130294,-0.00019973119196947664
1730553666589349400,1.427349365234375,-0.00019973119196947664,0.000665770610794425,-0.0007323477184399962
1730553666599377700,1.437377685546875,0.0003328853053972125,-0.0003994623839389533,-0.0007323477184399962
1730553666609404400,1.447404296875,-0.00019973119196947664,-0.0014646954368799925,-0.001797580742277205
1730553666619432200,1.45743212890625,-0.0012649642303586006,-0.0014646954368799925,0.0008655018173158169
1730553666629461500,1.46746142578125,-0.00019973119196947664,-0.0009320789249613881,0.0003328853053972125
1730553666639489800,1.47748974609375,-0.0007323477184399962,-0.0003994623839389533,-0.0007323477184399962
1730553666649513700,1.487513671875,-0.0007323477184399962,-0.0003994623839389533,-0.0012649642303586006
1730553666659541500,1.49754150390625,-0.00019973119196947664,-0.0003994623839389533,-0.0012649642303586006
1730553666669578200,1.507578125,-0.00019973119196947664,0.0001331541279796511,0.0003328853053972125
1730553666679606800,1.517606689453125,-0.00019973119196947664,0.0011983871227130294,0.0008655018173158169
1730553666689630500,1.52763037109375,-0.0007323477184399962,0.0001331541279796511,-0.00019973119196947664
1730553666699658500,1.537658447265625,-0.0012649642303586006,0.000665770610794425,-0.0012649642303586006
1730553666709653200,1.5476533203125,0.0003328853053972125,0.0001331541279796511,-0.0007323477184399962
1730553666719678000,1.557677978515625,0.0008655018173158169,-0.001997311832383275,0.0003328853053972125
1730553666729730800,1.567730712890625,0.0003328853053972125,0.000665770610794425,-0.0007323477184399962
1730553666739758600,1.577758544921875,-0.00019973119196947664,0.0011983871227130294,-0.0012649642303586006
1730553666749814300,1.587814208984375,0.0003328853053972125,0.0001331541279796511,-0.0007323477184399962
1730553666759844900,1.597844970703125,0.0008655018173158169,0.0001331541279796511,-0.00019973119196947664
1730553666769846800,1.6078466796875,0.0003328853053972125,0.0001331541279796511,-0.001797580742277205
1730553666779874600,1.61787451171875,0.0003328853053972125,0.000665770610794425,-0.00019973119196947664
1730553666789906200,1.62790625,0.0003328853053972125,0.0011983871227130294,-0.0007323477184399962
1730553666799934200,1.637934326171875,0.0003328853053972125,0.000665770610794425,-0.00019973119196947664
1730553666809961200,1.647961181640625,0.0008655018173158169,0.000665770610794425,0.0008655018173158169
1730553666819989000,1.657989013671875,-0.00019973119196947664,0.0001331541279796511,-0.0007323477184399962
1730553666830010000,1.668010009765625,-0.002862813649699092,0.0001331541279796511,0.0013981183292344213
1730553666840037000,1.678037109375,-0.0012649642303586006,0.0001331541279796511,0.0013981183292344213
1730553666850083800,1.688083740234375,-0.0012649642303586006,0.0001331541279796511,0.0008655018173158169
1730553666860113200,1.698113037109375,-0.00019973119196947664,0.000665770610794425,0.0003328853053972125
1730553666870143000,1.70814306640625,0.0019307348411530256,0.0001331541279796511,0.0003328853053972125
1730553666880172300,1.71817236328125,-0.00019973119196947664,-0.0003994623839389533,0.0008655018173158169
1730553666890192600,1.728192626953125,-0.0007323477184399962,0.000665770610794425,-0.0012649642303586006
1730553666900221000,1.738220947265625,0.0008655018173158169,0.000665770610794425,-0.00019973119196947664
1730553666910261200,1.74826123046875,-0.0007323477184399962,0.0001331541279796511,0.0013981183292344213
1730553666920290800,1.758290771484375,-0.0023301972541958094,-0.0003994623839389533,0.0008655018173158169
1730553666930307300,1.768307373046875,-0.0007323477184399962,-0.0009320789249613881,-0.0007323477184399962
1730553666940335600,1.778335693359375,0.0013981183292344213,-0.0003994623839389533,0.0003328853053972125
1730553666950365400,1.788365478515625,0.0008655018173158169,0.0017310036346316338,0.0008655018173158169
1730553666960393700,1.798393798828125,-0.001797580742277205,0.0011983871227130294,0.0003328853053972125
1730553666970391600,1.8083916015625,-0.0023301972541958094,-0.0003994623839389533,0.002463351469486952
1730553666980416800,1.818416748046875,0.0003328853053972125,0.000665770610794425,0.0008655018173158169
1730553666990472200,1.82847216796875,0.0008655018173158169,-0.0003994623839389533,-0.0007323477184399962
1730553667000500500,1.83850048828125,-0.00019973119196947664,-0.0009320789249613881,-0.0012649642303586006
1730553667010535400,1.848535400390625,-0.0012649642303586006,0.0001331541279796511,0.0003328853053972125
1730553667020564200,1.858564208984375,0.0003328853053972125,0.0017310036346316338,0.0003328853053972125
1730553667030584600,1.86858447265625,0.0003328853053972125,0.0001331541279796511,-0.0023301972541958094
1730553667040612600,1.878612548828125,-0.00019973119196947664,-0.0003994623839389533,-0.0012649642303586006
1730553667050642700,1.888642578125,-0.0012649642303586006,0.000665770610794425,-0.00019973119196947664
1730553667060671000,1.8986708984375,0.0008655018173158169,0.0001331541279796511,-0.00019973119196947664
1730553667070700800,1.90870068359375,-0.0007323477184399962,0.0001331541279796511,0.0008655018173158169
1730553667080729000,1.91872900390625,-0.00019973119196947664,0.0001331541279796511,-0.001797580742277205
1730553667090725600,1.9287255859375,-0.0012649642303586006,-0.0003994623839389533,-0.00019973119196947664
1730553667100750800,1.938750732421875,-0.0007323477184399962,-0.0003994623839389533,0.0003328853053972125
1730553667110815200,1.948815185546875,-0.00019973119196947664,-0.0009320789249613881,0.0003328853053972125
1730553667120844300,1.95884423828125,0.0008655018173158169,0.000665770610794425,-0.00019973119196947664
1730553667130870300,1.968870361328125,-0.00019973119196947664,-0.0009320789249613881,-0.00019973119196947664
1730553667140899000,1.978899169921875,-0.00019973119196947664,-0.0014646954368799925,0.0008655018173158169
1730553667150924500,1.988924560546875,-0.00019973119196947664,-0.0009320789249613881,0.0019307348411530256
1730553667160953000,1.998953125,-0.00019973119196947664,-0.0003994623839389533,-0.00019973119196947664
1730553667170975000,2.00897509765625,0.0003328853053972125,0.000665770610794425,-0.0012649642303586006
1730553667181002800,2.019002685546875,0.0013981183292344213,-0.0009320789249613881,-0.0007323477184399962
1730553667191033600,2.02903369140625,-0.0012649642303586006,0.000665770610794425,-0.00019973119196947664
1730553667201062000,2.039061767578125,-0.0007323477184399962,0.0011983871227130294,-0.0007323477184399962
1730553667211097300,2.049097412109375,-0.0007323477184399962,-0.0003994623839389533,-0.00019973119196947664
1730553667221126100,2.059126220703125,-0.00019973119196947664,-0.0003994623839389533,-0.0012649642303586006
1730553667231115000,2.069114990234375,0.0008655018173158169,-0.0003994623839389533,0.0003328853053972125
1730553667241140000,2.079139892578125,-0.00019973119196947664,0.0001331541279796511,0.0008655018173158169
1730553667251197000,2.089197021484375,-0.0007323477184399962,0.0001331541279796511,-0.00019973119196947664
1730553667261225000,2.099224853515625,-0.00019973119196947664,-0.001997311832383275,-0.0007323477184399962
1730553667271256000,2.109256103515625,0.0008655018173158169,-0.0009320789249613881,-0.0007323477184399962
1730553667281284400,2.119284423828125,0.0008655018173158169,0.000665770610794425,0.0003328853053972125
1730553667291307300,2.129307373046875,-0.0007323477184399962,0.0011983871227130294,-0.00019973119196947664
1730553667301335000,2.1393349609375,-0.00019973119196947664,-0.0003994623839389533,0.0008655018173158169
1730553667311356400,2.1493564453125,-0.0007323477184399962,-0.0009320789249613881,-0.0012649642303586006
1730553667321383400,2.159383544921875,-0.00019973119196947664,0.0001331541279796511,-0.00019973119196947664
1730553667331410400,2.169410400390625,0.0013981183292344213,0.00226362026296556,-0.0007323477184399962
1730553667341437400,2.1794375,-0.0007323477184399962,-0.0014646954368799925,-0.0007323477184399962
1730553667351464400,2.18946435546875,-0.00019973119196947664,0.0001331541279796511,0.0008655018173158169
1730553667361491500,2.199491455078125,0.0003328853053972125,0.000665770610794425,0.0003328853053972125
1730553667371516700,2.2095166015625,-0.001797580742277205,0.0011983871227130294,-0.0007323477184399962
1730553667381543400,2.21954345703125,-0.00019973119196947664,0.0001331541279796511,-0.0007323477184399962
1730553667391575300,2.2295751953125,0.0003328853053972125,0.000665770610794425,-0.0012649642303586006
1730553667401602800,2.239602783203125,0.0008655018173158169,-0.0003994623839389533,0.0008655018173158169
1730553667411625000,2.249625,0.002463351469486952,0.000665770610794425,-0.00019973119196947664
1730553667421652000,2.25965185546875,0.0003328853053972125,0.0017310036346316338,-0.00019973119196947664
1730553667431688400,2.2696884765625,0.0008655018173158169,0.0011983871227130294,-0.00019973119196947664
1730553667441716500,2.279716552734375,-0.00019973119196947664,0.0001331541279796511,-0.0007323477184399962
1730553667451739000,2.28973876953125,0.0013981183292344213,0.0011983871227130294,-0.0007323477184399962
1730553667461766400,2.299766357421875,0.0019307348411530256,0.000665770610794425,-0.001797580742277205
1730553667471865600,2.309865478515625,0.0003328853053972125,0.0001331541279796511,-0.0012649642303586006
1730553667481900000,2.319900146484375,0.0019307348411530256,0.000665770610794425,0.0008655018173158169
1730553667491867000,2.329866943359375,0.0008655018173158169,0.0001331541279796511,-0.00019973119196947664
1730553667501894700,2.339894775390625,-0.0012649642303586006,-0.0003994623839389533,-0.0023301972541958094
1730553667511914800,2.349914794921875,-0.001797580742277205,-0.0009320789249613881,0.0008655018173158169
1730553667521941800,2.359941650390625,-0.0012649642303586006,-0.0003994623839389533,0.0019307348411530256
1730553667531963600,2.369963623046875,-0.00019973119196947664,0.0001331541279796511,-0.0007323477184399962
1730553667541990100,2.379990234375,0.0003328853053972125,0.0001331541279796511,0.0003328853053972125
1730553667552024300,2.3900244140625,-0.00019973119196947664,0.0001331541279796511,0.0013981183292344213
1730553667562051600,2.400051513671875,-0.0007323477184399962,-0.0009320789249613881,0.0003328853053972125
1730553667572091000,2.4100908203125,-0.0007323477184399962,-0.0003994623839389533,0.0003328853053972125
1730553667582119400,2.420119384765625,0.0003328853053972125,0.000665770610794425,-0.001797580742277205
1730553667592147700,2.430147705078125,0.0003328853053972125,0.000665770610794425,0.0003328853053972125
1730553667602176300,2.44017626953125,-0.00019973119196947664,0.000665770610794425,0.0008655018173158169
1730553667612205800,2.450205810546875,0.0019307348411530256,0.0001331541279796511,0.0008655018173158169
1730553667622234400,2.460234375,0.0003328853053972125,0.0011983871227130294,-0.0007323477184399962
1730553667632260900,2.4702607421875,-0.0007323477184399962,0.0011983871227130294,-0.00019973119196947664
1730553667642289200,2.4802890625,-0.00019973119196947664,0.000665770610794425,0.0013981183292344213
1730553667652317000,2.49031689453125,-0.00019973119196947664,0.0017310036346316338,0.0013981183292344213
1730553667662345200,2.50034521484375,-0.0007323477184399962,0.000665770610794425,-0.00019973119196947664
1730553667672360000,2.51035986328125,-0.00019973119196947664,0.000665770610794425,-0.00019973119196947664
1730553667682387000,2.520386962890625,-0.00019973119196947664,0.000665770610794425,-0.00019973119196947664
1730553667692429800,2.530429931640625,-0.00019973119196947664,0.000665770610794425,-0.0012649642303586006
1730553667702458400,2.540458251953125,0.0003328853053972125,0.0017310036346316338,-0.00019973119196947664
1730553667712486400,2.550486328125,0.0003328853053972125,0.00226362026296556,-0.0012649642303586006
1730553667722514700,2.5605146484375,-0.001797580742277205,0.0001331541279796511,0.0008655018173158169
1730553667732546600,2.570546630859375,-0.0012649642303586006,0.0001331541279796511,0.0003328853053972125
1730553667742575400,2.580575439453125,0.0008655018173158169,0.0001331541279796511,-0.0007323477184399962
1730553667752592400,2.59059228515625,-0.0007323477184399962,0.0001331541279796511,-0.00019973119196947664
1730553667762620000,2.600619873046875,-0.0012649642303586006,-0.0009320789249613881,0.0019307348411530256
1730553667772651000,2.610651123046875,-0.0012649642303586006,0.0001331541279796511,0.0003328853053972125
1730553667782679000,2.620678955078125,0.0003328853053972125,0.0001331541279796511,-0.0012649642303586006
1730553667792707600,2.63070751953125,0.0003328853053972125,-0.0009320789249613881,0.0013981183292344213
1730553667802735600,2.640735595703125,0.0003328853053972125,0.0001331541279796511,0.0008655018173158169
1730553667812761300,2.65076123046875,0.0003328853053972125,-0.0003994623839389533,0.0008655018173158169
1730553667822789000,2.6607890625,-0.0012649642303586006,-0.0003994623839389533,0.0013981183292344213
1730553667832820700,2.67082080078125,-0.00019973119196947664,0.0001331541279796511,0.002463351469486952
1730553667842848800,2.680848876953125,-0.001797580742277205,-0.0009320789249613881,0.0013981183292344213
1730553667852876800,2.690876708984375,0.0008655018173158169,-0.0003994623839389533,-0.0007323477184399962
1730553667862904800,2.70090478515625,-0.00019973119196947664,-0.0003994623839389533,0.0003328853053972125
1730553667872929800,2.7109296875,-0.00019973119196947664,0.0001331541279796511,-0.00019973119196947664
1730553667882957600,2.72095751953125,0.0008655018173158169,0.000665770610794425,-0.0007323477184399962
1730553667892989700,2.73098974609375,-0.001797580742277205,-0.0009320789249613881,-0.0007323477184399962
1730553667903018000,2.74101806640625,-0.00019973119196947664,0.0011983871227130294,-0.001797580742277205
1730553667913041400,2.75104150390625,0.0008655018173158169,0.0011983871227130294,0.0003328853053972125
1730553667923069200,2.761069091796875,-0.0012649642303586006,0.000665770610794425,0.0008655018173158169
1730553667933099500,2.771099609375,-0.0023301972541958094,0.0001331541279796511,0.0003328853053972125
1730553667943127600,2.78112744140625,-0.0007323477184399962,-0.0003994623839389533,0.0013981183292344213
1730553667953160000,2.791159912109375,-0.0007323477184399962,-0.001997311832383275,0.0003328853053972125
1730553667963188500,2.8011884765625,0.0003328853053972125,-0.0009320789249613881,-0.0007323477184399962
1730553667973206300,2.811206298828125,0.0003328853053972125,0.0001331541279796511,0.0003328853053972125
1730553667983233500,2.821233642578125,-0.0012649642303586006,-0.0003994623839389533,-0.00019973119196947664
1730553667993268000,2.83126806640625,-0.001797580742277205,0.000665770610794425,-0.0007323477184399962
1730553668003296300,2.841296142578125,0.0003328853053972125,0.000665770610794425,-0.0007323477184399962
1730553668013332500,2.85133251953125,-0.00019973119196947664,-0.0009320789249613881,0.0003328853053972125
1730553668023361500,2.861361572265625,-0.001797580742277205,0.0011983871227130294,0.0003328853053972125
1730553668033379000,2.871379150390625,-0.001797580742277205,0.000665770610794425,0.0003328853053972125
1730553668043406800,2.88140673828125,0.0003328853053972125,-0.0003994623839389533,-0.001797580742277205
1730553668053436400,2.8914365234375,-0.00019973119196947664,-0.0009320789249613881,0.0003328853053972125
1730553668063464400,2.90146435546875,0.0003328853053972125,-0.0014646954368799925,0.0003328853053972125
1730553668073492700,2.91149267578125,-0.001797580742277205,0.0001331541279796511,-0.0012649642303586006
1730553668083520800,2.921520751953125,0.0003328853053972125,0.0001331541279796511,-0.0012649642303586006
1730553668093551900,2.9315517578125,0.0003328853053972125,-0.0014646954368799925,0.0029959678649902344
1730553668103580200,2.941580078125,-0.00019973119196947664,-0.0003994623839389533,0.0008655018173158169
1730553668113603800,2.951603759765625,-0.0012649642303586006,-0.0009320789249613881,0.0008655018173158169
1730553668123631600,2.961631591796875,-0.0007323477184399962,0.0001331541279796511,0.0019307348411530256
1730553668133655600,2.971655517578125,-0.0012649642303586006,0.000665770610794425,-0.0012649642303586006
1730553668143683000,2.98168310546875,-0.00019973119196947664,0.0001331541279796511,-0.001797580742277205
1730553668153722400,2.991722412109375,0.0019307348411530256,0.0001331541279796511,-0.001797580742277205
1730553668163751200,3.001751220703125,-0.00019973119196947664,-0.0009320789249613881,0.0003328853053972125
1730553668173756200,3.011756103515625,0.0008655018173158169,-0.0003994623839389533,-0.001797580742277205
1730553668183782400,3.021782470703125,-0.00019973119196947664,0.0001331541279796511,-0.0012649642303586006
1730553668193801700,3.0318017578125,-0.0012649642303586006,-0.0003994623839389533,0.0003328853053972125
1730553668203827500,3.041827392578125,-0.00019973119196947664,-0.0003994623839389533,-0.00019973119196947664
1730553668213869800,3.051869873046875,-0.0012649642303586006,-0.0014646954368799925,-0.00019973119196947664
1730553668223897000,3.06189697265625,-0.0007323477184399962,-0.0009320789249613881,-0.0012649642303586006
1730553668233940500,3.0719404296875,0.0013981183292344213,-0.0003994623839389533,-0.0012649642303586006
1730553668243969300,3.08196923828125,-0.0007323477184399962,-0.0003994623839389533,-0.0007323477184399962
1730553668253998600,3.09199853515625,-0.0007323477184399962,0.000665770610794425,0.0019307348411530256
1730553668264027600,3.102027587890625,-0.00019973119196947664,0.000665770610794425,0.0008655018173158169
1730553668274037200,3.112037353515625,-0.0023301972541958094,-0.0014646954368799925,0.0013981183292344213
1730553668284064300,3.122064208984375,-0.00019973119196947664,0.0017310036346316338,-0.0023301972541958094
1730553668294105900,3.13210595703125,-0.0007323477184399962,-0.0009320789249613881,-0.001797580742277205
1730553668304134400,3.142134521484375,-0.00019973119196947664,0.000665770610794425,-0.00019973119196947664
1730553668314168000,3.15216796875,-0.0012649642303586006,0.0011983871227130294,0.0003328853053972125
1730553668324197000,3.162197021484375,-0.002862813649699092,-0.0003994623839389533,0.0003328853053972125
1730553668334222000,3.17222216796875,0.0003328853053972125,0.0001331541279796511,-0.00019973119196947664
1730553668344250600,3.182250732421875,0.0013981183292344213,0.0001331541279796511,-0.00019973119196947664
1730553668354273800,3.192273681640625,0.0003328853053972125,-0.0003994623839389533,-0.0007323477184399962
1730553668364302000,3.202302001953125,-0.00019973119196947664,0.000665770610794425,0.0008655018173158169
1730553668374302500,3.212302490234375,0.0003328853053972125,0.0011983871227130294,0.0003328853053972125
1730553668384328000,3.222327880859375,-0.0012649642303586006,0.0001331541279796511,0.0003328853053972125
1730553668394390300,3.232390380859375,-0.0012649642303586006,0.000665770610794425,-0.001797580742277205
1730553668404419000,3.242419189453125,-0.00019973119196947664,-0.0003994623839389533,0.0013981183292344213
1730553668414447900,3.25244775390625,-0.0012649642303586006,0.0001331541279796511,0.0008655018173158169
1730553668424477000,3.262476806640625,-0.0012649642303586006,0.000665770610794425,-0.00019973119196947664
1730553668434498000,3.272498046875,0.0003328853053972125,0.0017310036346316338,-0.0007323477184399962
1730553668444526300,3.2825263671875,0.0003328853053972125,0.0001331541279796511,-0.0012649642303586006
1730553668454528000,3.292528076171875,-0.0012649642303586006,-0.0009320789249613881,0.0008655018173158169
1730553668464553500,3.302553466796875,0.0003328853053972125,0.000665770610794425,0.0003328853053972125
1730553668474607400,3.312607421875,0.0013981183292344213,0.000665770610794425,-0.0007323477184399962
1730553668484635600,3.3226357421875,-0.0012649642303586006,0.000665770610794425,0.0013981183292344213
1730553668494659800,3.332659912109375,-0.0012649642303586006,0.0011983871227130294,0.0008655018173158169
1730553668504687900,3.34268798828125,0.0003328853053972125,0.0011983871227130294,0.0003328853053972125
1730553668514718500,3.352718505859375,-0.0007323477184399962,0.0001331541279796511,-0.0012649642303586006
1730553668524746800,3.362746826171875,-0.0007323477184399962,0.0001331541279796511,-0.0007323477184399962
1730553668534783700,3.37278369140625,0.0003328853053972125,-0.0014646954368799925,0.0008655018173158169
1730553668544812800,3.382812744140625,-0.00019973119196947664,-0.0009320789249613881,0.0013981183292344213
1730553668554833700,3.392833740234375,-0.00019973119196947664,-0.0003994623839389533,-0.00019973119196947664
1730553668564861700,3.40286181640625,-0.0007323477184399962,0.0001331541279796511,0.0008655018173158169
1730553668574885000,3.412885009765625,-0.0007323477184399962,0.0001331541279796511,-0.0007323477184399962
1730553668584913000,3.422912841796875,-0.00019973119196947664,0.0011983871227130294,0.0013981183292344213
1730553668594928400,3.432928466796875,0.0003328853053972125,0.000665770610794425,-0.00019973119196947664
1730553668604955000,3.442954833984375,0.0008655018173158169,0.0001331541279796511,-0.00019973119196947664
1730553668614980400,3.45298046875,-0.0007323477184399962,-0.0009320789249613881,-0.001797580742277205
1730553668625006800,3.4630068359375,-0.001797580742277205,-0.0009320789249613881,-0.0012649642303586006
1730553668635047400,3.47304736328125,-0.0007323477184399962,0.0001331541279796511,-0.00019973119196947664
1730553668645075500,3.483075439453125,0.0013981183292344213,-0.0003994623839389533,0.0003328853053972125
1730553668655098600,3.4930986328125,0.0008655018173158169,0.0001331541279796511,-0.001797580742277205
1730553668665126100,3.503126220703125,-0.0007323477184399962,0.0011983871227130294,-0.0012649642303586006
1730553668675155000,3.513155029296875,-0.002862813649699092,-0.0003994623839389533,0.0003328853053972125
1730553668685182500,3.523182373046875,-0.00019973119196947664,0.0001331541279796511,0.0019307348411530256
1730553668695215000,3.533215087890625,0.0013981183292344213,0.0017310036346316338,0.0003328853053972125
1730553668705243100,3.5432431640625,0.002463351469486952,-0.0009320789249613881,-0.001797580742277205
1730553668715305200,3.55330517578125,-0.00019973119196947664,-0.001997311832383275,-0.0007323477184399962
1730553668725336600,3.563336669921875,-0.001797580742277205,0.0001331541279796511,0.0003328853053972125
1730553668735322600,3.573322509765625,0.0003328853053972125,0.0017310036346316338,0.0008655018173158169
1730553668745349400,3.583349365234375,-0.00019973119196947664,-0.0003994623839389533,0.0003328853053972125
1730553668755381000,3.593381103515625,-0.0007323477184399962,0.0001331541279796511,0.0003328853053972125
1730553668765408300,3.603408203125,-0.00019973119196947664,0.000665770610794425,-0.00019973119196947664
1730553668775436500,3.6134365234375,-0.0007323477184399962,0.0001331541279796511,-0.0007323477184399962
1730553668785464000,3.623464111328125,-0.00019973119196947664,-0.0009320789249613881,0.0003328853053972125
1730553668795485200,3.633485107421875,0.0008655018173158169,-0.0009320789249613881,-0.00019973119196947664
1730553668805512000,3.643511962890625,-0.00019973119196947664,-0.0014646954368799925,-0.00019973119196947664
1730553668815544300,3.65354443359375,-0.0007323477184399962,-0.0014646954368799925,-0.0007323477184399962
1730553668825571800,3.66357177734375,0.0003328853053972125,0.0001331541279796511,-0.0007323477184399962
1730553668835602000,3.673601806640625,-0.00019973119196947664,0.000665770610794425,0.0013981183292344213
1730553668845629700,3.683629638671875,0.0003328853053972125,0.000665770610794425,0.0008655018173158169
1730553668855671300,3.69367138671875,-0.0012649642303586006,-0.0009320789249613881,-0.0007323477184399962
1730553668865700400,3.703700439453125,-0.00019973119196947664,0.000665770610794425,-0.0012649642303586006
1730553668875726000,3.71372607421875,0.0008655018173158169,0.0011983871227130294,-0.00019973119196947664
1730553668885755000,3.7237548828125,-0.00019973119196947664,-0.0009320789249613881,0.0013981183292344213
1730553668895755000,3.733755126953125,0.0003328853053972125,0.000665770610794425,-0.00019973119196947664
1730553668905781000,3.743781005859375,-0.0012649642303586006,0.0001331541279796511,-0.0007323477184399962
1730553668915833900,3.753833740234375,-0.0007323477184399962,-0.0003994623839389533,-0.00019973119196947664
1730553668925862400,3.7638623046875,0.0008655018173158169,0.0001331541279796511,-0.0012649642303586006
1730553668935892700,3.773892822265625,-0.0007323477184399962,0.000665770610794425,-0.0007323477184399962
1730553668945921500,3.783921630859375,-0.00019973119196947664,0.000665770610794425,0.0003328853053972125
1730553668955950600,3.79395068359375,-0.0007323477184399962,-0.0003994623839389533,0.0008655018173158169
1730553668965979100,3.803979248046875,0.0003328853053972125,-0.0003994623839389533,0.0008655018173158169
1730553668975984000,3.813984130859375,-0.00019973119196947664,0.000665770610794425,-0.0007323477184399962
1730553668986010400,3.82401025390625,-0.00019973119196947664,0.0001331541279796511,-0.0012649642303586006
1730553668996056600,3.834056640625,-0.00019973119196947664,0.0011983871227130294,-0.001797580742277205
1730553669006084900,3.8440849609375,0.0003328853053972125,-0.0003994623839389533,-0.0012649642303586006
1730553669016116200,3.8541162109375,0.0003328853053972125,-0.0003994623839389533,-0.001797580742277205
1730553669026145000,3.86414501953125,-0.0012649642303586006,-0.0003994623839389533,0.0003328853053972125
1730553669036179700,3.8741796875,-0.0012649642303586006,0.000665770610794425,0.0008655018173158169
1730553669046209000,3.884208984375,-0.0007323477184399962,0.000665770610794425,0.0008655018173158169
1730553669056226000,3.89422607421875,0.0003328853053972125,-0.0014646954368799925,0.0003328853053972125
1730553669066254000,3.904254150390625,-0.001797580742277205,0.000665770610794425,-0.0023301972541958094
1730553669076287200,3.914287353515625,-0.0007323477184399962,0.0001331541279796511,-0.0012649642303586006
1730553669086315800,3.924315673828125,0.0008655018173158169,0.0001331541279796511,-0.00019973119196947664
1730553669096343000,3.934343017578125,0.0008655018173158169,0.000665770610794425,0.0008655018173158169
1730553669106371600,3.94437158203125,-0.0012649642303586006,0.0017310036346316338,0.0008655018173158169
1730553669116398300,3.9543984375,-0.0012649642303586006,0.0011983871227130294,0.0003328853053972125
1730553669126426400,3.96442626953125,-0.00019973119196947664,0.0001331541279796511,-0.0007323477184399962
1730553669136476000,3.974475830078125,0.0008655018173158169,-0.0003994623839389533,-0.0012649642303586006
1730553669146506200,3.98450634765625,0.0008655018173158169,0.0001331541279796511,-0.0007323477184399962
1730553669156489200,3.9944892578125,-0.00019973119196947664,0.000665770610794425,-0.0012649642303586006
1730553669166515000,4.004514892578125,-0.0007323477184399962,0.0017310036346316338,-0.001797580742277205
1730553669176563500,4.0145634765625,-0.0012649642303586006,0.000665770610794425,-0.0007323477184399962
1730553669186591200,4.02459130859375,-0.001797580742277205,0.000665770610794425,-0.0007323477184399962
1730553669196626000,4.0346259765625,0.0013981183292344213,-0.0009320789249613881,-0.00019973119196947664
1730553669206654500,4.044654541015625,-0.00019973119196947664,-0.0003994623839389533,0.0013981183292344213
1730553669216683500,4.05468359375,-0.002862813649699092,0.000665770610794425,0.0013981183292344213
1730553669226712300,4.06471240234375,-0.0012649642303586006,0.000665770610794425,-0.001797580742277205
1730553669236732000,4.07473193359375,-0.00019973119196947664,0.000665770610794425,-0.002862813649699092
1730553669246759700,4.084759765625,-0.0007323477184399962,0.000665770610794425,-0.001797580742277205
1730553669256792000,4.0947919921875,-0.00019973119196947664,-0.0009320789249613881,0.0008655018173158169
1730553669266820400,4.1048203125,0.0008655018173158169,0.0011983871227130294,0.0008655018173158169
1730553669276853500,4.114853515625,-0.0007323477184399962,-0.0003994623839389533,0.0008655018173158169
1730553669286882300,4.12488232421875,-0.0012649642303586006,-0.0003994623839389533,0.0003328853053972125
1730553669296912400,4.134912353515625,-0.0012649642303586006,-0.0009320789249613881,0.0013981183292344213
1730553669306941200,4.144941162109375,-0.0007323477184399962,-0.0003994623839389533,0.0008655018173158169
1730553669316949500,4.154949462890625,0.0008655018173158169,-0.0009320789249613881,0.0003328853053972125
1730553669326976300,4.164976318359375,0.0003328853053972125,-0.0009320789249613881,0.0003328853053972125
1730553669337002200,4.175002197265625,0.0003328853053972125,-0.0014646954368799925,0.0003328853053972125
1730553669347029000,4.185029052734375,-0.0007323477184399962,0.0001331541279796511,0.0013981183292344213
1730553669357059000,4.19505908203125,-0.0007323477184399962,0.0011983871227130294,-0.0007323477184399962
1730553669367086000,4.205086181640625,-0.0023301972541958094,-0.0003994623839389533,0.0003328853053972125
1730553669377113300,4.21511328125,-0.00019973119196947664,-0.0003994623839389533,-0.0012649642303586006
1730553669387140400,4.225140380859375,-0.00019973119196947664,-0.0014646954368799925,-0.00019973119196947664
1730553669397195300,4.2351953125,0.0003328853053972125,-0.001997311832383275,0.0019307348411530256
1730553669407225000,4.24522509765625,0.0003328853053972125,-0.0003994623839389533,0.0003328853053972125
1730553669417201000,4.255200927734375,-0.00019973119196947664,0.000665770610794425,-0.00019973119196947664
1730553669427225300,4.265225341796875,-0.0012649642303586006,-0.0003994623839389533,-0.00019973119196947664
1730553669437286100,4.2752861328125,-0.00019973119196947664,-0.0003994623839389533,0.0003328853053972125
1730553669447314200,4.285314208984375,-0.0007323477184399962,-0.0014646954368799925,-0.00019973119196947664
1730553669457334800,4.295334716796875,0.0003328853053972125,-0.0003994623839389533,-0.00019973119196947664
1730553669467362300,4.3053623046875,0.0008655018173158169,-0.001997311832383275,-0.0007323477184399962
1730553669477391600,4.3153916015625,0.0003328853053972125,-0.001997311832383275,-0.0012649642303586006
1730553669487419400,4.32541943359375,-0.001797580742277205,0.0001331541279796511,-0.0012649642303586006
1730553669497426200,4.33542626953125,-0.0023301972541958094,0.000665770610794425,-0.0007323477184399962
1730553669507451600,4.34545166015625,0.0008655018173158169,-0.0003994623839389533,0.0003328853053972125
1730553669517514800,4.3555146484375,0.0019307348411530256,0.0011983871227130294,-0.0007323477184399962
1730553669527544000,4.3655439453125,-0.0023301972541958094,0.0011983871227130294,-0.0007323477184399962
1730553669537569800,4.37556982421875,-0.001797580742277205,0.0011983871227130294,0.0008655018173158169
1730553669547598800,4.385598876953125,0.0003328853053972125,0.000665770610794425,0.0008655018173158169
1730553669557634600,4.395634521484375,-0.0007323477184399962,0.0017310036346316338,0.0003328853053972125
1730553669567664400,4.405664306640625,-0.0012649642303586006,-0.0003994623839389533,-0.00019973119196947664
1730553669577686800,4.415686767578125,-0.003395430278033018,-0.0025299284607172012,-0.0012649642303586006
1730553669587715800,4.4257158203125,-0.002862813649699092,0.000665770610794425,0.0003328853053972125
1730553669597720600,4.435720458984375,-0.00019973119196947664,0.000665770610794425,0.0003328853053972125
1730553669607747000,4.4457470703125,0.0029959678649902344,-0.0003994623839389533,-0.001797580742277205
1730553669617807000,4.45580712890625,0.002463351469486952,0.0001331541279796511,-0.001797580742277205
1730553669627837000,4.4658369140625,-0.001797580742277205,0.000665770610794425,-0.0023301972541958094
1730553669637853400,4.475853515625,-0.00019973119196947664,0.0011983871227130294,-0.0007323477184399962
1730553669647881700,4.4858818359375,0.0003328853053972125,0.000665770610794425,0.0008655018173158169
1730553669657907500,4.495907470703125,0.0008655018173158169,0.0001331541279796511,0.0003328853053972125
1730553669667935500,4.505935546875,-0.0012649642303586006,-0.0003994623839389533,-0.00019973119196947664
1730553669677923300,4.51592333984375,-0.0012649642303586006,-0.0003994623839389533,-0.0007323477184399962
1730553669687947500,4.525947509765625,-0.00019973119196947664,-0.0009320789249613881,-0.00019973119196947664
1730553669698023000,4.53602294921875,-0.0012649642303586006,-0.0009320789249613881,0.0003328853053972125
1730553669708052200,4.54605224609375,0.0008655018173158169,-0.0009320789249613881,-0.0007323477184399962
1730553669718083000,4.5560830078125,-0.00019973119196947664,-0.0014646954368799925,0.0003328853053972125
1730553669728112600,4.566112548828125,-0.0007323477184399962,-0.0009320789249613881,0.0003328853053972125
1730553669738136800,4.57613671875,0.0008655018173158169,0.0011983871227130294,0.0008655018173158169
1730553669748166000,4.586165771484375,-0.0007323477184399962,0.0011983871227130294,0.0003328853053972125
1730553669758187800,4.596187744140625,-0.0007323477184399962,0.0001331541279796511,-0.00019973119196947664
1730553669768216000,4.606216064453125,0.0003328853053972125,0.0001331541279796511,-0.00019973119196947664
1730553669778253000,4.616253173828125,-0.00019973119196947664,0.0017310036346316338,0.0003328853053972125
1730553669788282000,4.6262822265625,-0.0007323477184399962,0.0011983871227130294,-0.002862813649699092
1730553669798313500,4.6363134765625,-0.0012649642303586006,-0.0003994623839389533,0.0003328853053972125
1730553669808342800,4.6463427734375,-0.00019973119196947664,-0.0014646954368799925,0.0013981183292344213
1730553669818365200,4.656365234375,-0.00019973119196947664,0.0001331541279796511,-0.0007323477184399962
1730553669828393700,4.666393798828125,0.0003328853053972125,0.0017310036346316338,-0.0007323477184399962
1730553669838417000,4.6764169921875,0.0003328853053972125,0.0017310036346316338,-0.0007323477184399962
1730553669848445000,4.68644482421875,-0.0012649642303586006,0.0011983871227130294,0.0008655018173158169
1730553669858444800,4.69644482421875,-0.0007323477184399962,-0.0003994623839389533,-0.0007323477184399962
1730553669868470000,4.706469970703125,0.0003328853053972125,0.0001331541279796511,-0.0012649642303586006
1730553669878540300,4.716540283203125,0.0003328853053972125,-0.0014646954368799925,0.0013981183292344213
1730553669888570000,4.726570068359375,-0.0012649642303586006,-0.0009320789249613881,0.0008655018173158169
1730553669898578200,4.736578125,-0.001797580742277205,-0.0014646954368799925,0.0003328853053972125
1730553669908605700,4.746605712890625,-0.0007323477184399962,-0.0009320789249613881,-0.00019973119196947664
1730553669918640600,4.756640625,-0.0012649642303586006,0.0011983871227130294,-0.00019973119196947664
1730553669928669000,4.7666689453125,-0.0007323477184399962,0.0001331541279796511,0.0013981183292344213
1730553669938696400,4.776696533203125,-0.00019973119196947664,0.0001331541279796511,-0.00019973119196947664
1730553669948724500,4.786724365234375,0.0003328853053972125,0.0011983871227130294,0.0003328853053972125
1730553669958750500,4.79675048828125,0.0013981183292344213,-0.0003994623839389533,0.0008655018173158169
1730553669968778500,4.806778564453125,-0.0007323477184399962,0.0001331541279796511,-0.0007323477184399962
1730553669978801400,4.816801513671875,-0.0012649642303586006,0.000665770610794425,-0.00019973119196947664
1730553669988829000,4.826828857421875,0.0013981183292344213,-0.0003994623839389533,0.0003328853053972125
1730553669998858000,4.83685791015625,0.0013981183292344213,-0.0009320789249613881,-0.0012649642303586006
1730553670008885800,4.8468857421875,-0.0007323477184399962,-0.0009320789249613881,-0.001797580742277205
1730553670018923000,4.856923095703125,-0.002862813649699092,-0.0009320789249613881,-0.0007323477184399962
1730553670028951800,4.866951904296875,0.0008655018173158169,-0.0009320789249613881,-0.00019973119196947664
1730553670038975700,4.876975830078125,0.0008655018173158169,-0.0003994623839389533,-0.00019973119196947664
1730553670049003800,4.887003662109375,0.0013981183292344213,0.000665770610794425,-0.0007323477184399962
1730553670059029200,4.897029296875,0.0019307348411530256,0.0017310036346316338,-0.00019973119196947664
1730553670069057000,4.90705712890625,0.002463351469486952,0.0001331541279796511,-0.00019973119196947664
1730553670079081500,4.91708154296875,0.0003328853053972125,0.000665770610794425,-0.0007323477184399962
1730553670089109000,4.92710888671875,-0.0007323477184399962,0.0017310036346316338,0.0008655018173158169
1730553670099123700,4.937123779296875,-0.0007323477184399962,-0.0003994623839389533,0.0008655018173158169
1730553670109150000,4.94714990234375,0.0003328853053972125,0.0017310036346316338,-0.0012649642303586006
1730553670119176000,4.957176025390625,0.0008655018173158169,0.000665770610794425,-0.0012649642303586006
1730553670129202000,4.967201904296875,-0.00019973119196947664,-0.0003994623839389533,0.0003328853053972125
1730553670139256600,4.977256591796875,0.0003328853053972125,0.0001331541279796511,0.0003328853053972125
1730553670149285600,4.98728564453125,-0.001797580742277205,-0.0009320789249613881,-0.003395430278033018
1730553670159306800,4.997306640625,0.0003328853053972125,0.0001331541279796511,-0.0007323477184399962
1730553670169335000,5.0073349609375,0.0013981183292344213,0.00226362026296556,0.0008655018173158169
1730553670179362300,5.0173623046875,0.0008655018173158169,0.0001331541279796511,0.0019307348411530256
1730553670189390300,5.027390380859375,0.0003328853053972125,0.0001331541279796511,0.0013981183292344213
1730553670199424000,5.037424072265625,0.0008655018173158169,0.000665770610794425,0.0003328853053972125
1730553670209452800,5.047452880859375,0.0013981183292344213,0.000665770610794425,0.0003328853053972125
1730553670219483000,5.05748291015625,-0.0007323477184399962,0.0001331541279796511,-0.00019973119196947664
1730553670229511700,5.06751171875,-0.00019973119196947664,-0.0009320789249613881,-0.00019973119196947664
1730553670239529200,5.077529296875,-0.00019973119196947664,-0.0009320789249613881,0.0013981183292344213
1730553670249556700,5.087556640625,-0.00019973119196947664,0.0001331541279796511,-0.0012649642303586006
1730553670259570700,5.09757080078125,0.0003328853053972125,-0.0003994623839389533,-0.001797580742277205
1730553670269597000,5.107596923828125,-0.001797580742277205,-0.0009320789249613881,0.0003328853053972125
1730553670279643100,5.11764306640625,-0.0007323477184399962,-0.0014646954368799925,0.0008655018173158169
1730553670289671400,5.12767138671875,0.0003328853053972125,-0.0009320789249613881,-0.00019973119196947664
1730553670299697700,5.13769775390625,-0.0007323477184399962,-0.0003994623839389533,0.0003328853053972125
1730553670309725700,5.1477255859375,-0.0007323477184399962,-0.0003994623839389533,-0.00019973119196947664
1730553670319758800,5.1577587890625,-0.00019973119196947664,-0.0009320789249613881,0.0019307348411530256
1730553670329787400,5.167787353515625,0.0003328853053972125,0.0001331541279796511,-0.00019973119196947664
1730553670339786800,5.177786865234375,0.0008655018173158169,0.0001331541279796511,0.0008655018173158169
1730553670349812500,5.1878125,0.0008655018173158169,-0.0014646954368799925,0.0003328853053972125
1730553670359863300,5.19786328125,0.0019307348411530256,0.0011983871227130294,-0.0012649642303586006
1730553670369891300,5.207891357421875,0.0013981183292344213,0.0017310036346316338,-0.00019973119196947664
1730553670379895000,5.21789501953125,0.0019307348411530256,-0.0003994623839389533,-0.0007323477184399962
1730553670389920800,5.227920654296875,-0.00019973119196947664,0.0011983871227130294,-0.0023301972541958094
1730553670399978800,5.237978759765625,-0.0007323477184399962,0.000665770610794425,-0.00019973119196947664
1730553670410007600,5.248007568359375,-0.00019973119196947664,0.0001331541279796511,-0.00019973119196947664
1730553670420036000,5.2580361328125,-0.0012649642303586006,-0.0014646954368799925,-0.0007323477184399962
1730553670430065200,5.268065185546875,-0.00019973119196947664,-0.0009320789249613881,-0.00019973119196947664
1730553670440071700,5.27807177734375,0.0003328853053972125,0.000665770610794425,-0.00019973119196947664
1730553670450098400,5.288098388671875,0.0013981183292344213,0.000665770610794425,-0.0007323477184399962
1730553670460129000,5.29812890625,0.0008655018173158169,0.0011983871227130294,-0.001797580742277205
1730553670470156000,5.308156005859375,0.0008655018173158169,0.000665770610794425,-0.0012649642303586006
1730553670480207400,5.318207275390625,0.0003328853053972125,0.0001331541279796511,-0.0012649642303586006
1730553670490236700,5.328236572265625,0.0003328853053972125,0.000665770610794425,-0.00019973119196947664
1730553670500253700,5.338253662109375,0.0008655018173158169,-0.0003994623839389533,0.0003328853053972125
1730553670510282000,5.348281982421875,0.0013981183292344213,0.0017310036346316338,-0.00019973119196947664
1730553670520310500,5.358310546875,0.0013981183292344213,0.0001331541279796511,-0.00019973119196947664
1730553670530338800,5.3683388671875,0.0013981183292344213,0.000665770610794425,-0.0007323477184399962
1730553670540358100,5.378358154296875,0.0003328853053972125,-0.0003994623839389533,0.0003328853053972125
1730553670550385700,5.3883857421875,-0.0007323477184399962,0.0011983871227130294,0.0008655018173158169
1730553670560386800,5.39838671875,0.0003328853053972125,-0.0003994623839389533,-0.0012649642303586006
1730553670570411500,5.40841162109375,0.0003328853053972125,0.0001331541279796511,-0.0023301972541958094
1730553670580465200,5.418465087890625,-0.0012649642303586006,-0.0003994623839389533,-0.001797580742277205
1730553670590492700,5.42849267578125,-0.0023301972541958094,-0.0003994623839389533,-0.00019973119196947664
1730553670600511000,5.438510986328125,-0.00019973119196947664,0.000665770610794425,-0.001797580742277205
1730553670610537700,5.448537841796875,-0.00019973119196947664,0.0001331541279796511,-0.002862813649699092
1730553670620601600,5.4586015625,0.0008655018173158169,0.0017310036346316338,-0.0007323477184399962
1730553670630632000,5.4686318359375,0.0008655018173158169,-0.0009320789249613881,-0.00019973119196947664
1730553670640636700,5.47863671875,-0.0007323477184399962,-0.0003994623839389533,-0.00019973119196947664
1730553670650664700,5.488664794921875,-0.00019973119196947664,0.0001331541279796511,-0.0007323477184399962
1730553670660698000,5.498697998046875,-0.0007323477184399962,-0.0003994623839389533,-0.0012649642303586006
1730553670670726700,5.5087265625,0.0008655018173158169,0.000665770610794425,-0.001797580742277205
1730553670680742700,5.51874267578125,0.0008655018173158169,0.0011983871227130294,-0.0007323477184399962
1730553670690770000,5.52877001953125,0.0003328853053972125,0.0017310036346316338,-0.0012649642303586006
1730553670700798500,5.538798583984375,0.0008655018173158169,0.0011983871227130294,-0.0012649642303586006
1730553670710825700,5.54882568359375,-0.00019973119196947664,0.000665770610794425,-0.0012649642303586006
1730553670720854500,5.5588544921875,0.0008655018173158169,0.0011983871227130294,-0.0023301972541958094
1730553670730882000,5.568882080078125,-0.0007323477184399962,0.000665770610794425,-0.001797580742277205
1730553670740893200,5.57889306640625,-0.0007323477184399962,0.0001331541279796511,-0.00019973119196947664
1730553670750919200,5.588919189453125,0.0003328853053972125,-0.0009320789249613881,0.0013981183292344213
1730553670760945000,5.59894482421875,-0.00019973119196947664,-0.0003994623839389533,-0.001797580742277205
1730553670770989600,5.608989501953125,0.0008655018173158169,0.0017310036346316338,-0.0012649642303586006
1730553670781016800,5.619016845703125,0.0008655018173158169,-0.0003994623839389533,-0.0007323477184399962
1730553670791055600,5.6290556640625,-0.00019973119196947664,0.0011983871227130294,0.0003328853053972125
1730553670801084200,5.639084228515625,-0.0012649642303586006,0.0017310036346316338,-0.0007323477184399962
1730553670811111200,5.649111083984375,0.0003328853053972125,0.000665770610794425,-0.0007323477184399962
1730553670821139200,5.65913916015625,0.0003328853053972125,0.000665770610794425,-0.0012649642303586006
1730553670831188000,5.66918798828125,0.0003328853053972125,-0.0003994623839389533,-0.003928046673536301
1730553670841218000,5.679218017578125,0.0003328853053972125,-0.0003994623839389533,-0.001797580742277205
1730553670851224800,5.689224853515625,-0.00019973119196947664,0.000665770610794425,-0.00019973119196947664
1730553670861252600,5.699252685546875,-0.00019973119196947664,0.0001331541279796511,-0.00019973119196947664
1730553670871271400,5.709271484375,0.0003328853053972125,0.000665770610794425,-0.0012649642303586006
1730553670881298400,5.71929833984375,0.0003328853053972125,0.000665770610794425,-0.0012649642303586006
1730553670891326000,5.729325927734375,-0.00019973119196947664,0.0001331541279796511,-0.0007323477184399962
1730553670901353000,5.73935302734375,0.0003328853053972125,0.000665770610794425,-0.001797580742277205
1730553670911392500,5.749392578125,0.0008655018173158169,0.0001331541279796511,-0.002862813649699092
1730553670921420800,5.7594208984375,-0.0012649642303586006,0.000665770610794425,-0.001797580742277205
1730553670931446000,5.769446044921875,-0.00019973119196947664,0.00226362026296556,0.0008655018173158169
1730553670941474000,5.77947412109375,0.0003328853053972125,0.000665770610794425,-0.00019973119196947664
1730553670951500800,5.789500732421875,-0.0007323477184399962,-0.0003994623839389533,-0.0012649642303586006
1730553670961528800,5.79952880859375,-0.0012649642303586006,0.0011983871227130294,-0.0007323477184399962
1730553670971546000,5.809546142578125,-0.0007323477184399962,-0.0003994623839389533,0.0003328853053972125
1730553670981572900,5.81957275390625,-0.00019973119196947664,-0.0003994623839389533,-0.0007323477184399962
1730553670991615000,5.829614990234375,0.0003328853053972125,0.0001331541279796511,-0.00019973119196947664
1730553671001643300,5.839643310546875,-0.00019973119196947664,0.0001331541279796511,-0.00019973119196947664
1730553671011668500,5.84966845703125,-0.0007323477184399962,0.000665770610794425,-0.001797580742277205
1730553671021696500,5.859696533203125,-0.0023301972541958094,-0.0003994623839389533,-0.00019973119196947664
1730553671031736800,5.86973681640625,-0.00019973119196947664,0.0001331541279796511,-0.00019973119196947664
1730553671041766100,5.87976611328125,-0.001797580742277205,-0.0003994623839389533,0.0003328853053972125
1730553671051788500,5.88978857421875,-0.001797580742277205,-0.0003994623839389533,-0.0007323477184399962
1730553671061817000,5.899817138671875,-0.00019973119196947664,0.0001331541279796511,-0.002862813649699092
1730553671071911400,5.909911376953125,0.0013981183292344213,-0.0003994623839389533,0.0008655018173158169
1730553671081946600,5.919946533203125,-0.0007323477184399962,0.000665770610794425,0.0013981183292344213
1730553671091906000,5.929906005859375,-0.0012649642303586006,0.0011983871227130294,0.0008655018173158169
1730553671101933600,5.93993359375,-0.00019973119196947664,0.0011983871227130294,-0.00019973119196947664
1730553671111963100,5.949963134765625,0.0013981183292344213,0.0001331541279796511,-0.00019973119196947664
1730553671121991000,5.959990966796875,0.002463351469486952,0.0001331541279796511,0.0003328853053972125
1730553671132018200,5.97001806640625,-0.00019973119196947664,0.0017310036346316338,0.0008655018173158169
1730553671142046000,5.9800458984375,-0.00019973119196947664,0.0011983871227130294,0.0003328853053972125
1730553671152076300,5.990076171875,-0.00019973119196947664,-0.0025299284607172012,-0.00019973119196947664
1730553671162104300,6.000104248046875,0.0008655018173158169,0.0011983871227130294,0.0003328853053972125
1730553671172090000,6.010090087890625,0.0003328853053972125,0.0027962366584688425,-0.00019973119196947664
1730553671182113800,6.02011376953125,0.0013981183292344213,-0.004660394508391619,-0.0023301972541958094
1730553671192182800,6.030182861328125,-0.00019973119196947664,-0.001997311832383275,-0.0023301972541958094
1730553671202211000,6.040211181640625,-0.0007323477184399962,0.0027962366584688425,-0.0012649642303586006
1730553671212248000,6.050248046875,0.0013981183292344213,0.0001331541279796511,-0.0007323477184399962
1730553671222277000,6.060277099609375,0.0019307348411530256,0.0001331541279796511,-0.0012649642303586006
1730553671232297200,6.070297119140625,0.0003328853053972125,-0.0003994623839389533,-0.00019973119196947664
1730553671242325500,6.080325439453125,0.0003328853053972125,0.000665770610794425,0.0013981183292344213
1730553671252350000,6.090349853515625,0.0008655018173158169,0.0011983871227130294,0.0008655018173158169
1730553671262378000,6.1003779296875,0.0003328853053972125,0.0011983871227130294,0.0003328853053972125
1730553671272415000,6.1104150390625,-0.00019973119196947664,-0.0009320789249613881,-0.0007323477184399962
1730553671282443800,6.12044384765625,-0.00019973119196947664,-0.0003994623839389533,0.0008655018173158169
1730553671292468700,6.13046875,-0.0012649642303586006,0.000665770610794425,-0.00019973119196947664
1730553671302497000,6.1404970703125,0.0003328853053972125,-0.0025299284607172012,-0.0012649642303586006
1730553671312520400,6.1505205078125,0.0008655018173158169,-0.020106272771954536,-0.008188978768885136
1730553671322548500,6.160548583984375,0.0003328853053972125,-0.006790860556066036,-0.004993279930204153
1730553671332580400,6.170580322265625,-0.0007323477184399962,-0.009453942999243736,-0.003395430278033018
1730553671342608600,6.180608642578125,-0.0007323477184399962,-0.006258244160562754,-0.0023301972541958094
1730553671352640000,6.190639892578125,-0.0012649642303586006,-0.015845341607928276,-0.006058512721210718
1730553671362668500,6.20066845703125,-0.0012649642303586006,-0.010519175790250301,-0.003928046673536301
1730553671372666000,6.210666015625,-0.0012649642303586006,-0.010519175790250301,-0.004460663069039583
1730553671382691600,6.220691650390625,0.0003328853053972125,-0.0025299284607172012,-0.0012649642303586006
1730553671392741600,6.23074169921875,-0.00019973119196947664,-0.010519175790250301,-0.001797580742277205
1730553671402769700,6.240769775390625,0.002463351469486952,-0.03661738336086273,-0.014114337973296642
1730553671412797200,6.250797119140625,-0.00019973119196947664,-0.05905385687947273,-0.022636201232671738
1730553671422825200,6.2608251953125,-0.0012649642303586006,-0.10219579190015793,-0.04607132822275162
1730553671432834800,6.270834716796875,-0.011384678073227406,-0.15179570019245148,-0.07589785009622574
1730553671442861000,6.280861083984375,-0.01511299330741167,-0.14700216054916382,-0.09560466557741165
1730553671452913200,6.2909130859375,-0.0071237459778785706,-0.11870690435171127,-0.10359390825033188
1730553671462942000,6.30094189453125,-0.048135217279195786,-0.09580439329147339,-0.11218235641717911
1730553671472959500,6.31095947265625,-0.07962616533041,-0.08142375200986862,-0.12656299769878387
1730553671482987000,6.320987060546875,0.006724283564835787,-0.042476166039705276,-0.1457371860742569
1730553671493015800,6.331015869140625,0.17569686472415924,-0.030758604407310486,-0.16278092563152313
1730553671503043300,6.341043212890625,0.2684387266635895,-0.004127778112888336,-0.15319383144378662
1730553671513070800,6.35107080078125,0.24287313222885132,0.02942706272006035,-0.10792142152786255
1730553671523061200,6.361061279296875,0.14533773064613342,0.06145063042640686,-0.07483261823654175
1730553671533086200,6.371086181640625,0.055258963257074356,0.04866783320903778,-0.07802832126617432
1730553671543166200,6.381166259765625,0.027562905102968216,0.02090519852936268,-0.09453943371772766
1730553671553196500,6.391196533203125,0.09041165560483932,0.04114462435245514,-0.08069140464067459
1730553671563227400,6.401227294921875,0.1906101405620575,0.054526615887880325,-0.04979964345693588
1730553671573257700,6.4112578125,0.2013290375471115,0.0017310036346316338,-0.06258244067430496
1730553671583271000,6.42127099609375,0.10212921351194382,-0.029693370684981346,-0.08655018359422684
1730553671593318100,6.431318115234375,-0.003395430278033018,-0.037150003015995026,-0.08708280324935913
1730553671603326500,6.441326416015625,-0.02416747435927391,-0.04087831825017929,-0.07589785009622574
1730553671613356800,6.451356689453125,0.03235645219683647,-0.00359516148455441,-0.04553871229290962
1730553671623387100,6.46138720703125,0.08135717362165451,0.0465373694896698,-0.027962366119027138
1730553671633416000,6.471416015625,0.11817429214715958,0.07583127915859222,-0.04979964345693588
1730553671643446300,6.4814462890625,0.13255493342876434,0.0347532257437706,-0.06524552404880524
1730553671653476600,6.4914765625,0.08881380409002304,0.04114462435245514,-0.04553871229290962
1730553671663507000,6.5015068359375,0.061650361865758896,0.05932016298174858,-0.03595161437988281
1730553671673524500,6.5115244140625,0.08135717362165451,0.05399399995803833,-0.04660394415259361
1730553671683553500,6.521553466796875,0.11018504202365875,0.0683746412396431,-0.05139749497175217
1730553671693560300,6.531560302734375,0.1155112087726593,0.07316819578409195,-0.04873441159725189
1730553671703587000,6.541587158203125,0.09999874979257584,0.06304848194122314,-0.04181039705872536
1730553671713650200,6.551650146484375,0.05685681104660034,0.016111649572849274,-0.03169068321585655
1730553671723680500,6.561680419921875,0.019041040912270546,-0.007323476951569319,-0.026897134259343147
1730553671733701600,6.57170166015625,0.009387366473674774,-0.001997311832383275,-0.030092833563685417
1730553671743731200,6.581731201171875,0.004593817517161369,-0.0003994623839389533,-0.03595161437988281
1730553671753749800,6.591749755859375,0.03129122033715248,0.004394086077809334,-0.03595161437988281
1730553671763778000,6.601778076171875,0.09627043455839157,-0.025432437658309937,-0.03328853100538254
1730553671773793300,6.611793212890625,0.1682402342557907,-0.0504654161632061,-0.027429750189185143
1730553671783820300,6.6218203125,0.20612259209156036,-0.048867564648389816,-0.023168819025158882
1730553671793867000,6.631866943359375,0.20878566801548004,-0.009986559860408306,-0.0370168462395668
1730553671803896000,6.64189599609375,0.19973118603229523,0.042809050530195236,-0.0583215095102787
1730553671813919200,6.651919189453125,0.15705528855323792,0.11311443150043488,-0.07749570161104202
1730553671823947500,6.661947509765625,0.08828118443489075,0.19200825691223145,-0.08122401684522629
1730553671833979100,6.671979248046875,0.03448691964149475,0.19413872063159943,-0.07270215451717377
1730553671844007700,6.682007568359375,0.004593817517161369,0.12270152568817139,-0.0583215095102787
1730553671854028800,6.69202880859375,-0.02203700877726078,0.04114462435245514,-0.0476691760122776
1730553671864056800,6.702056884765625,-0.021504390984773636,0.014513799920678139,-0.04873441159725189
1730553671874070000,6.712070068359375,0.020106272771954536,0.025698747485876083,-0.03861469775438309
1730553671884096500,6.722096435546875,0.027562905102968216,0.09180977195501328,-0.04447348043322563
1730553671894142200,6.73214208984375,0.020106272771954536,0.19041040539741516,-0.07430000603199005
1730553671904170500,6.74217041015625,0.022236740216612816,0.2735651433467865,-0.08974587917327881
1730553671914199000,6.752198974609375,-0.008188978768885136,0.32209983468055725,-0.10359390825033188
1730553671924227300,6.762227294921875,-0.056657079607248306,0.33488261699676514,-0.10685618966817856
1730553671934244400,6.772244384765625,-0.09400681406259537,0.31084832549095154,-0.08548495173454285
1730553671944272000,6.78227197265625,-0.11477886140346527,0.32209983468055725,-0.05086487531661987
1730553671954286000,6.7922861328125,-0.1222354918718338,0.3476654291152954,-0.016777420416474342
1730553671964312000,6.80231201171875,-0.09294158220291138,0.3306216895580292,0.03548557683825493
1730553671974353400,6.812353515625,-0.01777607575058937,0.2522605061531067,0.11970555782318115
1730553671984381000,6.822380859375,0.03022598661482334,0.12802769243717194,0.20978432893753052
1730553671994423300,6.83242333984375,0.01258306484669447,0.08488575369119644,0.2742975056171417
1730553672004452400,6.842452392578125,-0.019373925402760506,0.16910573840141296,0.29080861806869507
1730553672014476000,6.85247607421875,-0.036417655646800995,0.23574937880039215,0.264710396528244
1730553672024504300,6.86250439453125,-0.061983246356248856,0.28847840428352356,0.21564310789108276
1730553672034524200,6.872524169921875,-0.0790935531258583,0.39826399087905884,0.1799578070640564
1730553672044551700,6.8825517578125,-0.0683746412396431,0.39773139357566833,0.17356640100479126
1730553672054584800,6.892584716796875,0.007789516355842352,0.2959350347518921,0.23055636882781982
1730553672064613000,6.902613037109375,0.08402025699615479,0.18242116272449493,0.32489606738090515
1730553672074633000,6.912633056640625,0.0712374597787857,0.06943988054990768,0.40964868664741516
1730553672084660500,6.922660400390625,0.03342168778181076,0.0033288532868027687,0.4293554723262787
1730553672094691000,6.932691162109375,0.0238345880061388,0.019307348877191544,0.37769168615341187
1730553672104718800,6.94271875,0.02596505545079708,0.08701622486114502,0.29453691840171814
1730553672114753500,6.95275341796875,0.02596505545079708,0.23415152728557587,0.20925171673297882
1730553672124781800,6.96278173828125,0.037150003015995026,0.389209508895874,0.12929265201091766
1730553672134775600,6.972775634765625,0.02809552103281021,0.4094489514827728,0.048800986260175705
1730553672144800500,6.982800537109375,0.01045259926468134,0.40785109996795654,-0.027962366119027138
1730553672154854100,6.992854248046875,-0.01671084389090538,0.39560091495513916,-0.09400681406259537
1730553672164882000,7.0028818359375,-0.042809050530195236,0.28954365849494934,-0.14733503758907318
1730553672174914000,7.0129140625,-0.0071237459778785706,0.15738818049430847,-0.17396587133407593
1730553672184942000,7.022942138671875,0.07443315535783768,-0.057988621294498444,-0.14999812841415405
1730553672194934800,7.032934814453125,0.12136998772621155,-0.2977991998195648,-0.09933298081159592
1730553672204959500,7.04295947265625,0.1261635422706604,-0.4086500108242035,-0.05139749497175217
1730553672215025000,7.05302490234375,0.09627043455839157,-0.323364794254303,-0.00019973119196947664
1730553672225053400,7.063053466796875,0.06431344151496887,-0.13255493342876434,0.06531210243701935
1730553672235095000,7.073094970703125,0.039813082665205,0.07529865950345993,0.12023817747831345
1730553672245124900,7.083124755859375,0.020106272771954536,0.22776013612747192,0.1474016159772873
1730553672255142100,7.09314208984375,0.0019307348411530256,0.2714346945285797,0.1553908735513687
1730553672265170700,7.103170654296875,-0.006058512721210718,0.2309558391571045,0.15006470680236816
1730553672275210800,7.113210693359375,-0.00019973119196947664,0.1211036816239357,0.1468690037727356
1730553672285240600,7.123240478515625,-0.0007323477184399962,-0.004660394508391619,0.15432563424110413
1730553672295292200,7.133292236328125,-0.008721595630049706,0.011318100616335869,0.18368612229824066
1730553672305324000,7.143323974609375,-0.005525896325707436,0.17336668074131012,0.2326868325471878
1730553672315320600,7.153320556640625,0.022236740216612816,0.37749195098876953,0.31530898809432983
1730553672325349000,7.16334912109375,0.0504654161632061,0.5443340539932251,0.43361642956733704
1730553672335376600,7.173376708984375,0.0930747389793396,0.6690329313278198,0.5487947463989258
1730553672345405000,7.183405029296875,0.10805457830429077,0.6578479409217834,0.6340799331665039
1730553672355428600,7.1934287109375,0.09520520269870758,0.5709648728370667,0.6734935641288757
1730553672365456400,7.203456298828125,0.09999874979257584,0.5097140073776245,0.6798849701881409
1730553672375464200,7.213464111328125,0.11977213621139526,0.4356137216091156,0.6569824814796448
1730553672385490200,7.223490234375,0.1586531400680542,0.40518802404403687,0.6036542654037476
1730553672395516400,7.233516357421875,0.18155565857887268,0.4654402434825897,0.5263582468032837
1730553672405542400,7.24354248046875,0.15279436111450195,0.536877453327179,0.43095332384109497
1730553672415598800,7.253598876953125,0.11923952400684357,0.5043878555297852,0.32542869448661804
1730553672425628000,7.2636279296875,0.16025099158287048,0.38388335704803467,0.223632350564003
1730553672435648000,7.27364794921875,0.2679060995578766,0.2719672918319702,0.1580539494752884
1730553672445676000,7.283676025390625,0.33454975485801697,0.1205710619688034,0.1351514458656311
1730553672455708000,7.2937080078125,0.30472323298454285,-0.004660394508391619,0.15059731900691986
1730553672465736200,7.303736083984375,0.19540368020534515,-0.05905385687947273,0.21298003196716309
1730553672475754000,7.31375390625,0.08135717362165451,-0.06970618665218353,0.28015628457069397
1730553672485781200,7.32378125,0.019041040912270546,-0.03129122033715248,0.32596129179000854
1730553672495823600,7.33382373046875,-0.019373925402760506,-0.039813082665205,0.3398093283176422
1730553672505852400,7.343852294921875,-0.03908073529601097,-0.17682868242263794,0.3222329914569855
1730553672515873800,7.353873779296875,-0.03055887296795845,-0.37882348895072937,0.2876129150390625
1730553672525902000,7.363902099609375,-0.02097177505493164,-0.563774585723877,0.25026318430900574
1730553672535940400,7.3739404296875,-0.027895789593458176,-0.7199643850326538,0.20818647742271423
1730553672545969700,7.3839697265625,-0.05825493112206459,-0.7327471375465393,0.18688182532787323
1730553672555994400,7.393994384765625,-0.45219141244888306,-0.2594508230686188,0.5642406344413757
1730553672566023200,7.404023193359375,-0.9915322065353394,-0.1373484879732132,1.14519202709198
1730553672576031200,7.41403125,-1.1189607381820679,-0.15286093950271606,1.609966516494751
1730553672586058000,7.42405810546875,-0.9899343848228455,-0.2461353987455368,1.9708142280578613
1730553672596102000,7.434101806640625,-0.6547188758850098,-0.4284234046936035,2.1744070053100586
1730553672606130400,7.44413037109375,-0.33488261699676514,-0.6047860383987427,2.162156820297241
1730553672616156400,7.454156494140625,-0.1979336142539978,-0.6506576538085938,1.9633575677871704
1730553672626184700,7.464184814453125,-0.2298905998468399,-0.5589810013771057,1.6521098613739014
1730553672636218600,7.474218505859375,-0.31198012828826904,-0.41291093826293945,1.2251511812210083
1730553672646247400,7.484247314453125,-0.3263607621192932,-0.29566875100135803,0.5461316704750061
1730553672656238600,7.494238525390625,-0.3183715343475342,-0.4284234046936035,-0.021570969372987747
1730553672666263600,7.504263671875,-0.3631778955459595,-0.5424699187278748,-0.4266258180141449
1730553672676305700,7.5143056640625,-0.46177852153778076,-0.5040549635887146,-0.7144384980201721
1730553672686332400,7.52433251953125,-0.6333476305007935,-0.4646413326263428,-0.8125064969062805
1730553672696381200,7.534381103515625,-0.7959287762641907,-0.4177044928073883,-0.7410693168640137
1730553672706410000,7.544409912109375,-0.8444634675979614,-0.3740299344062805,-0.5769568085670471
1730553672716437000,7.55443701171875,-0.79220050573349,-0.3105820119380951,-0.4133104085922241
1730553672726465800,7.5644658203125,-0.7655696868896484,-0.13308754563331604,-0.2427399754524231
1730553672736490800,7.57449072265625,-0.7400040626525879,-0.0025299284607172012,-0.07483261823654175
1730553672746519000,7.58451904296875,-0.714371919631958,0.09021192044019699,0.0824224054813385
1730553672756542200,7.594542236328125,-0.832213282585144,0.024633513763546944,0.3179720640182495
1730553672766570000,7.604570068359375,-0.9963257908821106,-0.2701031565666199,0.6362104415893555
1730553672776594000,7.614593994140625,-0.9979236125946045,-0.49819618463516235,0.8850755095481873
1730553672786621200,7.62462109375,-0.824224054813385,-0.9150351881980896,0.9629040956497192
1730553672796662000,7.634662109375,-0.6355446577072144,-1.3979185819625854,0.9794151782989502
1730553672806690800,7.64469091796875,-0.5806185603141785,-1.5514453649520874,1.0386022329330444
1730553672816710700,7.654710693359375,-0.6339467763900757,-1.8690844774246216,1.1116372346878052
1730553672826738700,7.66473876953125,-0.6120429635047913,-2.5299949645996094,1.1744860410690308
1730553672836768500,7.6747685546875,-0.4665720760822296,-3.3183341026306152,1.2246185541152954
1730553672846796800,7.684796875,-0.33168694376945496,-3.8294460773468018,1.2512493133544922
1730553672856814600,7.694814697265625,-0.2954690158367157,-3.823054790496826,1.2363361120224
1730553672866841900,7.704841796875,-0.33488261699676514,-3.283647298812866,1.1462572813034058
1730553672876872000,7.714871826171875,-0.4782896339893341,-2.221942901611328,1.009840965270996
1730553672886899200,7.724899169921875,-0.7591782808303833,-0.9955268502235413,0.8200962543487549
1730553672896931800,7.734931884765625,-1.072023868560791,-0.05585815757513046,0.5263582468032837
1730553672906960000,7.7449599609375,-1.280942678451538,0.53794264793396,0.14420592784881592
1730553672916970000,7.754969970703125,-1.3865339756011963,0.8982577323913574,-0.25818586349487305
1730553672926996200,7.764996337890625,-1.4403282403945923,1.0554461479187012,-0.6286206245422363
1730553672937047600,7.775047607421875,-1.4552414417266846,1.0085759162902832,-0.9025852680206299
1730553672947076000,7.785076171875,-1.389729619026184,0.8433316946029663,-1.0369377136230469
1730553672957081000,7.7950810546875,-1.2393985986709595,0.6791526079177856,-1.0534489154815674
1730553672967107300,7.805107421875,-1.011305570602417,0.590671718120575,-0.9782834053039551
1730553672977154000,7.815154052734375,-0.6675016283988953,0.37749195098876953,-0.7975932359695435
1730553672987182300,7.825182373046875,-0.29972994327545166,0.14673584699630737,-0.46071329712867737
1730553672997221400,7.835221435546875,-0.041743818670511246,0.12003844976425171,0.007789516355842352
1730553673007251000,7.8452509765625,0.09094426780939102,0.18401899933815002,0.5413380861282349
1730553673017281800,7.85528173828125,0.1368158608675003,0.24533648788928986,1.1036479473114014
1730553673027311600,7.8653115234375,0.10858719050884247,0.14833369851112366,1.6286081075668335
1730553673037335300,7.875335205078125,0.01957365684211254,-0.1256309151649475,2.035327434539795
1730553673047364400,7.8853642578125,-0.08282186836004257,-0.4385431110858917,2.267681360244751
1730553673057346300,7.89534619140625,-0.1776941865682602,-0.6426684260368347,2.2943122386932373
1730553673067370800,7.905370849609375,-0.2400103211402893,-0.6794189214706421,2.0928499698638916
1730553673077445400,7.9154453125,-0.261847585439682,-0.5488613247871399,1.6952518224716187
1730553673087475000,7.925474853515625,-0.261847585439682,-0.2690379023551941,1.1638336181640625
1730553673097473300,7.935473388671875,-0.2634454369544983,0.10459256917238235,0.5658384561538696
1730553673107499500,7.94549951171875,-0.3077192008495331,0.48195135593414307,-0.0071237459778785706
1730553673117560800,7.955560791015625,-0.39673271775245667,0.8081789612770081,-0.4681699275970459
1730553673127590400,7.96559033203125,-0.5347470045089722,0.9798146486282349,-0.7672340869903564
1730553673137610000,7.97560986328125,-0.7031869292259216,0.9531172513961792,-0.8903350830078125
1730553673147638500,7.985638427734375,-0.8524527549743652,0.7745575904846191,-0.8498561978340149
1730553673157671700,7.995671630859375,-0.955846905708313,0.46437501907348633,-0.6617094278335571
1730553673167701000,8.005700927734376,-1.0054467916488647,0.16963836550712585,-0.3732976019382477
1730553673177726500,8.0157265625,-1.0065120458602905,-0.014247491955757141,-0.04340824484825134
1730553673187755300,8.02575537109375,-0.9803472757339478,-0.07982590049505234,0.2998631000518799
1730553673197779000,8.035779052734375,-0.9121723771095276,-0.04940018057823181,0.6191000938415527
1730553673207807200,8.04580712890625,-0.8124399185180664,0.01983996480703354,0.8765535950660706
1730553673217838600,8.055838623046874,-0.7149044871330261,0.08115743845701218,1.0370043516159058
1730553673227867100,8.0658671875,-0.6242931485176086,0.11364705115556717,1.0604394674301147
1730553673237882600,8.075882568359376,-0.5347470045089722,0.16377957165241241,0.9421320557594299
1730553673247910000,8.085909912109376,-0.46071329712867737,0.27835869789123535,0.716635525226593
1730553673257944000,8.095944091796875,-0.41803738474845886,0.43934205174446106,0.44533398747444153
1730553673267972000,8.10597216796875,-0.4025914967060089,0.5187684893608093,0.11331415921449661
1730553673278005200,8.116005126953125,-0.47562655806541443,0.4702337980270386,-0.3280251920223236
1730553673288033500,8.126033447265625,-0.6120429635047913,0.4457334578037262,-0.8348763585090637
1730553673298055200,8.13605517578125,-0.6184343695640564,0.5837476849555969,-1.227215051651001
1730553673308083000,8.1460830078125,-0.4217657148838043,0.8582449555397034,-1.4190901517868042
1730553673318067000,8.15606689453125,-0.19686837494373322,1.002184510231018,-1.4425252676010132
1730553673328090400,8.16609033203125,-0.10039821267127991,0.9350082874298096,-1.2772809267044067
1730553673338159400,8.176159423828125,-0.09507204592227936,0.823624849319458,-0.9270856380462646
1730553673348187400,8.1861875,-0.02842840552330017,0.7266221046447754,-0.5087153315544128
1730553673358203400,8.196203369140624,0.12403307110071182,0.6168364882469177,-0.19580315053462982
1730553673368230100,8.206230224609374,0.25831902027130127,0.5102466344833374,-0.06364767253398895
1730553673378281500,8.216281494140626,0.33827805519104004,0.4579836130142212,-0.12230207026004791
1730553673388310500,8.226310546875,0.4310199022293091,0.41697216033935547,-0.3589169383049011
1730553673398333400,8.23633349609375,0.5930684804916382,0.2623802125453949,-0.6878076195716858
1730553673408362000,8.246362060546875,0.8035851716995239,-0.011051792651414871,-0.9740224480628967
1730553673418391800,8.256391845703124,0.9938623905181885,-0.3404751121997833,-1.149919033050537
1730553673428420600,8.266420654296875,1.0402666330337524,-0.6751580238342285,-1.1792129278182983
1730553673438435800,8.276435791015626,0.9885362386703491,-0.8585112690925598,-1.0491878986358643
1730553673448463000,8.286463134765626,0.9325449466705322,-0.9437964558601379,-0.8738239407539368
1730553673458497300,8.296497314453125,0.8787506818771362,-0.9746882319450378,-0.7677667140960693
1730553673468525300,8.306525390625,0.8025199174880981,-0.9390029311180115,-0.7027209401130676
1730553673478559500,8.3165595703125,0.7332131862640381,-0.8521198630332947,-0.6477948427200317
1730553673488588000,8.326588134765625,0.7055171728134155,-0.726355791091919,-0.6270228028297424
1730553673498611200,8.336611083984375,0.7289522886276245,-0.6075156927108765,-0.6744922399520874
1730553673508639200,8.34663916015625,0.8179658055305481,-0.46623918414115906,-0.6883402466773987
1730553673518681300,8.356681396484374,0.8755549788475037,-0.19493764638900757,-0.5225633978843689
1730553673528711000,8.3667109375,0.850521981716156,-0.1155112087726593,-0.3727649748325348
1730553673538713600,8.376713623046875,0.7342784404754639,-0.39107367396354675,-0.5023239254951477
1730553673548740400,8.386740234375,0.6426018476486206,-0.6767558455467224,-0.8876720070838928
1730553673558780700,8.39678076171875,0.5642406344413757,-0.25359204411506653,-1.3636313676834106
1730553673568808700,8.40680859375,0.5482621192932129,-0.009453942999243736,-1.1205586194992065
1730553673578841000,8.416841064453125,0.6927343606948853,0.25758665800094604,-0.7667014598846436
1730553673588869600,8.42686962890625,0.6916691064834595,0.28901103138923645,-0.685677170753479
1730553673598895900,8.436895751953125,0.5696333646774292,0.35565468668937683,-0.7603100538253784
1730553673608924200,8.446924072265626,0.6181014776229858,0.505985677242279,-0.8818132281303406
1730553673618927600,8.456927734375,0.7939980626106262,0.6466630101203918,-0.9404675960540771
1730553673628953300,8.466953369140626,0.9357406497001648,0.7906026244163513,-0.8967264890670776
1730553673638990300,8.476990234375,1.0397340059280396,0.9382039904594421,-0.7970606088638306
1730553673649017300,8.487017333984374,1.1319432258605957,1.0991873741149902,-0.678753137588501
1730553673659061500,8.4970615234375,1.2097052335739136,1.2201578617095947,-0.522030770778656
1730553673669090000,8.507090087890624,1.2139661312103271,1.2009836435317993,-0.33335137367248535
1730553673679117000,8.517116943359374,1.0621038675308228,0.9307473301887512,-0.16917231678962708
1730553673689145300,8.527145263671875,0.7966611385345459,0.5288882255554199,-0.12283468246459961
1730553673699167700,8.537167724609375,0.5370771884918213,0.21331290900707245,-0.23634858429431915
1730553673709195500,8.547195556640625,0.3334845006465912,0.0011983871227130294,-0.38827744126319885
1730553673719226000,8.55722607421875,0.15226174890995026,-0.03928046673536301,-0.46071329712867737
1730553673729254100,8.567254150390625,0.0035285844933241606,0.028894444927573204,-0.5081827044487
1730553673739271700,8.577271728515624,-0.02736317366361618,0.17389929294586182,-0.6270228028297424
1730553673749298700,8.587298583984374,0.09840089827775955,0.25811928510665894,-0.7933322787284851
1730553673759343600,8.597343505859374,0.33614760637283325,0.2724999189376831,-0.895128607749939
1730553673769372400,8.607372314453125,0.664505660533905,0.1978670358657837,-0.9814790487289429
1730553673779397000,8.617397216796874,1.0780824422836304,0.47289687395095825,-1.1477885246276855
1730553673789425700,8.62742578125,1.4660935401916504,1.0805457830429077,-1.213832974433899
1730553673799453200,8.637453125,1.5721508264541626,0.9664326906204224,-1.234139084815979
1730553673809481500,8.6474814453125,1.4458540678024292,1.0378698110580444,-1.1935936212539673
1730553673819476500,8.6574765625,1.2102378606796265,1.0591745376586914,-1.0662317276000977
1730553673829501400,8.66750146484375,0.9250882863998413,0.8550492525100708,-0.9222920536994934
1730553673839552500,8.677552490234374,0.71723473072052,0.5965304970741272,-0.7538520693778992
1730553673849580000,8.687580078125,0.6532541513442993,0.2927393615245819,-0.553455114364624
1730553673859599000,8.69759912109375,0.702321469783783,0.060918014496564865,-0.32482948899269104
1730553673869625900,8.7076259765625,0.7785521745681763,-0.09314130991697311,-0.10685618966817856
1730553673879652000,8.717652099609374,0.8259550333023071,-0.13521802425384521,0.08402025699615479
1730553673889678800,8.727678955078124,0.865967869758606,-0.054792921990156174,0.19327321648597717
1730553673899727600,8.7377275390625,0.904316246509552,0.09447285532951355,0.17356640100479126
1730553673909756400,8.74775634765625,0.9406007528305054,0.28688058257102966,0.08615072071552277
1730553673919792000,8.757792236328125,0.9832100868225098,0.47449472546577454,0.006724283564835787
1730553673929821700,8.76782177734375,0.9640358686447144,0.4792882800102234,-0.08548495173454285
1730553673939836400,8.77783642578125,0.8968596458435059,0.3503285050392151,-0.11804113537073135
1730553673949864400,8.787864501953125,0.8110417723655701,0.20372581481933594,-0.07003907114267349
1730553673959905300,8.7979052734375,0.6975278854370117,0.02729659713804722,-0.020505735650658607
1730553673969934600,8.8079345703125,0.578687846660614,-0.1256309151649475,0.049333605915308
1730553673979954400,8.817954345703125,0.49073952436447144,-0.19813334941864014,0.15219517052173615
1730553673989983000,8.82798291015625,0.4523245692253113,-0.18322007358074188,0.22576282918453217
1730553673999999200,8.837999267578125,0.450726717710495,-0.05692338943481445,0.25079581141471863
1730553674010026200,8.848026123046875,0.46670523285865784,0.13874660432338715,0.19913199543952942
1730553674020059600,8.8580595703125,0.48754385113716125,0.273032546043396,0.0829550251364708
1730553674030087400,8.86808740234375,0.48914170265197754,0.33115431666374207,-0.027962366119027138
1730553674040121300,8.878121337890626,0.45552027225494385,0.3055221438407898,-0.08388710021972656
1730553674050149600,8.888149658203124,0.4166392683982849,0.19254086911678314,-0.08069140464067459
1730553674060140800,8.898140869140626,0.35798487067222595,0.025698747485876083,-0.03808208182454109
1730553674070165200,8.908165283203125,0.2769605815410614,-0.1603175699710846,-0.00019973119196947664
1730553674080234000,8.91823388671875,0.20079642534255981,-0.3420729637145996,0.020039696246385574
1730553674090263000,8.928262939453125,0.16131623089313507,-0.4758262634277344,0.05252930521965027
1730553674100278300,8.9382783203125,0.17622949182987213,-0.5621767044067383,0.1138467788696289
1730553674110305800,8.948305908203125,0.21624229848384857,-0.6047860383987427,0.13941237330436707
1730553674120336600,8.958336669921875,0.2348838746547699,-0.5893401503562927,0.10639014840126038
1730553674130364700,8.96836474609375,0.24180789291858673,-0.5147738456726074,0.033887725323438644
1730553674140375600,8.97837548828125,0.2561885416507721,-0.4187697470188141,-0.07057169079780579
1730553674150401800,8.98840185546875,0.19646891951560974,-0.31431031227111816,-0.16065046191215515
1730553674160440300,8.9984404296875,-0.046004749834537506,-0.13148969411849976,-0.14999812841415405
1730553674170467800,9.0084677734375,-0.25545620918273926,-0.05692338943481445,-0.08335448056459427
1730553674180481000,9.01848095703125,-0.2842840552330017,-0.18748101592063904,-0.07323476672172546
1730553674190507300,9.02850732421875,-0.25652143359184265,-0.3458012640476227,-0.08655018359422684
1730553674200559900,9.038559814453125,-0.22776013612747192,-0.4827502965927124,-0.11963898688554764
1730553674210588700,9.048588623046875,-0.20059669017791748,-0.5845466256141663,-0.1872812807559967
1730553674220614000,9.05861376953125,-0.19207483530044556,-0.626157283782959,-0.2533923089504242
1730553674230642200,9.06864208984375,-0.20325978100299835,-0.6900712847709656,-0.24380521476268768
1730553674240670500,9.07867041015625,-0.2192382663488388,-0.8696961998939514,-0.03169068321585655
1730553674250699000,9.088698974609375,-0.2181730419397354,-0.7961950898170471,0.12130340933799744
1730553674260731400,9.0987314453125,-0.23521676659584045,-0.6980605125427246,0.06371425092220306
1730553674270760200,9.10876025390625,-0.25652143359184265,-0.5989272594451904,-0.028494983911514282
1730553674280799500,9.118799560546876,-0.20592285692691803,-0.3846822679042816,-0.1547916680574417
1730553674290829300,9.128829345703124,-0.15152940154075623,-0.20452474057674408,-0.3152424097061157
1730553674300830500,9.13883056640625,-0.14939893782138824,-0.09047822654247284,-0.44100648164749146
1730553674310857500,9.148857421875,-0.15685556828975677,0.046004749834537506,-0.5262916684150696
1730553674320882200,9.158882080078126,-0.1424749195575714,0.22449785470962524,-0.5945332050323486
1730553674330909000,9.168908935546876,-0.10519175976514816,0.3828181326389313,-0.6222292184829712
1730553674340964600,9.178964599609374,-0.0908111184835434,0.4345484972000122,-0.5876091718673706
1730553674350994200,9.188994140625,-0.14087706804275513,0.3588503897190094,-0.4149082601070404
1730553674361020200,9.199020263671875,-0.18142250180244446,0.2314884513616562,-0.1553242951631546
1730553674371049500,9.209049560546875,-0.1557903289794922,0.14993155002593994,-0.04021254554390907
1730553674381079000,9.2190791015625,-0.1424749195575714,-0.006258244160562754,0.01311568170785904
1730553674391108400,9.2291083984375,-0.18195511400699615,-0.23814615607261658,0.10159660130739212
1730553674401109800,9.23910986328125,-0.21550995111465454,-0.4406735897064209,0.20552340149879456
1730553674411136300,9.24913623046875,-0.2208361178636551,-0.5446003675460815,0.25931766629219055
1730553674421164800,9.259164794921874,-0.20325978100299835,-0.5045875906944275,0.2449370175600052
1730553674431191300,9.26919140625,-0.18142250180244446,-0.33727940917015076,0.1783599555492401
1730553674441238500,9.279238525390625,-0.14620323479175568,-0.13521802425384521,0.10053136944770813
1730553674451267300,9.289267333984375,-0.08601756393909454,0.033155377954244614,0.04081173986196518
1730553674461274400,9.2992744140625,-0.02842840552330017,0.12749508023262024,-0.0007323477184399962
1730553674471300900,9.30930078125,0.0029959678649902344,0.14620323479175568,-0.025299284607172012
1730553674481359600,9.319359619140625,0.02276935614645481,0.11844059824943542,-0.023168819025158882
1730553674491389400,9.329389404296874,0.03288906812667847,0.0683746412396431,-0.00978682842105627
1730553674501399800,9.33939990234375,0.03555215150117874,0.03209014609456062,0.004593817517161369
1730553674511427600,9.349427490234374,0.04620448127388954,0.014513799920678139,0.01631138101220131
1730553674521468400,9.359468505859375,0.052063263952732086,-0.0025299284607172012,0.02909417636692524
1730553674531497500,9.36949755859375,0.040345702320337296,-0.02703028731048107,0.050931453704833984
1730553674541522400,9.3795224609375,0.0238345880061388,-0.03342168778181076,0.07223611325025558
1730553674551551200,9.38955126953125,0.007789516355842352,-0.009986559860408306,0.08561810106039047
1730553674561578800,9.399578857421876,-0.008721595630049706,0.013981183059513569,0.09840089827775955
1730553674571607300,9.409607177734374,-0.024700090289115906,0.011850717477500439,0.12077079713344574
1730553674581605400,9.41960546875,-0.032156720757484436,0.011318100616335869,0.1575213372707367
1730553674591631000,9.429631103515625,-0.030026255175471306,0.046004749834537506,0.17569686472415924
1730553674601689900,9.43968994140625,-0.02523270808160305,0.09500546753406525,0.16018441319465637
1730553674611719000,9.449718994140625,-0.01564561016857624,0.15738818049430847,0.13089050352573395
1730553674621720300,9.45972021484375,-0.00019973119196947664,0.20532366633415222,0.09520520269870758
1730553674631746300,9.469746337890625,0.008854749612510204,0.22829274833202362,0.07543181627988815
1730553674641808400,9.479808349609375,0.01957365684211254,0.2074541300535202,0.07383396476507187
1730553674651838200,9.489838134765625,0.026497671380639076,0.1557903289794922,0.09200949966907501
1730553674661869000,9.499869140625,0.019041040912270546,0.10832088440656662,0.10266183316707611
1730553674671899000,9.50989892578125,0.004593817517161369,0.08648360520601273,0.08561810106039047
1730553674681886500,9.519886474609375,-0.0023301972541958094,0.07423342764377594,0.046670522540807724
1730553674691912000,9.529911865234375,0.005659050308167934,0.0683746412396431,0.0173766128718853
1730553674701943800,9.53994384765625,0.016910573467612267,0.04973306506872177,0.022170161828398705
1730553674711970000,9.549969970703126,0.016910573467612267,0.029959678649902344,0.04187697172164917
1730553674722032000,9.5600322265625,0.012050448916852474,0.04227643460035324,0.04720313847064972
1730553674732062000,9.57006201171875,-0.00019973119196947664,0.061983246356248856,0.040279123932123184
1730553674742072300,9.580072265625,-0.01511299330741167,0.06358109414577484,0.053061921149492264
1730553674752100000,9.59010009765625,-0.02203700877726078,0.025698747485876083,0.08029194176197052
1730553674762102800,9.600102783203125,-0.013515143655240536,-0.028628136962652206,0.0930747389793396
1730553674772128000,9.6101279296875,-0.0007323477184399962,-0.07236927002668381,0.08402025699615479
1730553674782177500,9.620177490234376,0.01258306484669447,-0.06704310327768326,0.060518551617860794
1730553674792205300,9.630205322265626,0.028628136962652206,-0.0238345880061388,0.02696371078491211
1730553674802225400,9.640225341796874,0.03288906812667847,0.019307348877191544,-0.003395430278033018
1730553674812252400,9.65025244140625,0.031823836266994476,0.05399399995803833,-0.025831900537014008
1730553674822288400,9.660288330078124,0.028628136962652206,0.06890726089477539,-0.03382114693522453
1730553674832316400,9.67031640625,0.017975807189941406,0.05612446367740631,-0.03169068321585655
1730553674842358300,9.680358154296876,-0.0007323477184399962,0.03262276202440262,-0.025831900537014008
1730553674852387600,9.6903876953125,-0.013515143655240536,0.012915950268507004,-0.013515143655240536
1730553674862403600,9.700403564453126,-0.021504390984773636,-0.0014646954368799925,0.0019307348411530256
1730553674872431400,9.710431396484376,-0.02310224063694477,-0.011051792651414871,0.008854749612510204
1730553674882452200,9.7204521484375,-0.020439159125089645,-0.02170412242412567,0.01524614728987217
1730553674892479500,9.7304794921875,-0.006058512721210718,-0.017975807189941406,0.014713531360030174
1730553674902512600,9.7405126953125,0.01045259926468134,0.006524552125483751,0.02163754589855671
1730553674912540400,9.75054052734375,0.02809552103281021,0.03901416063308716,0.031757257878780365
1730553674922567400,9.7605673828125,0.03661738336086273,0.07370080798864365,0.029626794159412384
1730553674932595200,9.77059521484375,0.03235645219683647,0.11258181184530258,0.014713531360030174
1730553674942632000,9.7806318359375,0.015845341607928276,0.13661614060401917,-0.006591129116714001
1730553674952660700,9.79066064453125,-0.001797580742277205,0.10938611626625061,-0.017842652276158333
1730553674962684400,9.800684326171876,-0.018308691680431366,0.0347532257437706,-0.01031944528222084
1730553674972712400,9.81071240234375,-0.039613351225852966,-0.044606633484363556,0.0008655018173158169
1730553674982737400,9.8207373046875,-0.05399399995803833,-0.10059794038534164,0.008854749612510204
1730553674992765200,9.83076513671875,-0.05186353251338005,-0.11497858911752701,0.01311568170785904
1730553675002803700,9.8408037109375,-0.04014597088098526,-0.09047822654247284,0.006191667169332504
1730553675012832800,9.850832763671875,-0.024700090289115906,-0.05852124094963074,-0.0012649642303586006
1730553675022835000,9.8608349609375,0.0013981183292344213,-0.02170412242412567,0.0013981183292344213
1730553675032861200,9.870861083984375,0.028628136962652206,0.02303566411137581,0.004061201121658087
1730553675042919700,9.880919677734376,0.040345702320337296,0.054526615887880325,-0.0012649642303586006
1730553675052949200,9.89094921875,0.03342168778181076,0.042809050530195236,-0.006058512721210718
1730553675062960600,9.900960693359375,0.01311568170785904,-0.008921326138079166,-0.0012649642303586006
1730553675072988200,9.91098828125,-0.00978682842105627,-0.05852124094963074,0.007256899960339069
1730553675083025400,9.921025390625,-0.028961023315787315,-0.11338073760271072,0.007789516355842352
1730553675093054000,9.931053955078125,-0.04547213390469551,-0.17363297939300537,0.002463351469486952
1730553675103078100,9.941078125,-0.02416747435927391,-0.2599834203720093,0.015778765082359314
1730553675113106200,9.951106201171875,-0.03055887296795845,-0.32389742136001587,0.0173766128718853
1730553675123131400,9.96113134765625,-0.0673094093799591,-0.24027661979198456,-0.05033225938677788
1730553675133159400,9.971159423828125,-0.059852778911590576,-0.11923952400684357,-0.10572437942028046
1730553675143196700,9.98119677734375,-0.04121120274066925,-0.026497671380639076,-0.13828055560588837
1730553675153225500,9.9912255859375,-0.02842840552330017,0.049200449138879776,-0.13615009188652039
1730553675163256000,10.001256103515624,-0.0092542115598917,0.08328790962696075,-0.1137802004814148
1730553675173284900,10.011284912109375,0.007789516355842352,0.09074454009532928,-0.08761541545391083
1730553675183306200,10.02130615234375,0.008854749612510204,0.07529865950345993,-0.05033225938677788
1730553675193334500,10.03133447265625,-0.004993279930204153,0.02303566411137581,-0.007656362373381853
1730553675203370800,10.041370849609375,-0.03055887296795845,-0.04673709720373154,0.014180914498865604
1730553675213399800,10.05139990234375,-0.06145063042640686,-0.11231550574302673,0.02376801148056984
1730553675223418600,10.061418701171876,-0.08175663650035858,-0.1709699034690857,0.037083424627780914
1730553675233446700,10.07144677734375,-0.08921326696872711,-0.2226337045431137,0.06105116754770279
1730553675243479600,10.0814794921875,-0.08761541545391083,-0.24986371397972107,0.08774857223033905
1730553675253508000,10.091508056640626,-0.08335448056459427,-0.22636201977729797,0.08508548885583878
1730553675263532000,10.101531982421875,-0.07316819578409195,-0.14380645751953125,0.06371425092220306
1730553675273560000,10.11156005859375,-0.04760260134935379,-0.05426030606031418,0.04507267102599144
1730553675283564000,10.12156396484375,0.002463351469486952,0.0683746412396431,-0.003395430278033018
1730553675293589500,10.131589599609375,0.030758604407310486,0.16750788688659668,-0.03967992961406708
1730553675303642000,10.14164208984375,0.03768261894583702,0.1552577167749405,-0.04127778112888336
1730553675313670400,10.15167041015625,0.03661738336086273,0.10938611626625061,-0.05139749497175217
1730553675323703800,10.161703857421875,0.03768261894583702,0.09820117056369781,-0.05672365799546242
1730553675333732900,10.17173291015625,0.05632419511675835,0.0992664024233818,-0.04447348043322563
1730553675343724500,10.181724609375,0.07762885838747025,0.09500546753406525,-0.016777420416474342
1730553675353749800,10.191749755859375,0.0829550251364708,0.05612446367740631,0.017909230664372444
1730553675363809500,10.2018095703125,0.0717700719833374,-0.017975807189941406,0.04400743916630745
1730553675373838300,10.21183837890625,0.055258963257074356,-0.08834776282310486,0.04400743916630745
1730553675383867100,10.2218671875,0.04087831825017929,-0.10645672678947449,0.014713531360030174
1730553675393895700,10.231895751953125,0.02703028731048107,-0.07929328083992004,-0.013515143655240536
1730553675403919600,10.241919677734375,0.022236740216612816,-0.043541401624679565,-0.03328853100538254
1730553675413948000,10.251947998046875,0.01744319126009941,-0.011584409512579441,-0.04553871229290962
1730553675423976000,10.261975830078125,0.01364829856902361,0.009720250964164734,-0.021038351580500603
1730553675434004200,10.272004150390625,0.0185084231197834,0.02303566411137581,-0.0071237459778785706
1730553675444024300,10.2820244140625,0.03235645219683647,0.03528584539890289,0.005126433912664652
1730553675454051800,10.2920517578125,0.05898727849125862,0.009720250964164734,0.041344355791807175
1730553675464080400,10.302080322265626,0.07390054315328598,-0.057988621294498444,0.07330134510993958
1730553675474108000,10.31210791015625,0.07283531129360199,-0.11764167249202728,0.08828118443489075
1730553675484148700,10.322148681640625,0.07336792349815369,-0.12935923039913177,0.09200949966907501
1730553675494177500,10.332177490234375,0.07070484012365341,-0.11764167249202728,0.07869409024715424
1730553675504202500,10.342202392578125,0.07762885838747025,-0.116043820977211,0.0599859356880188
1730553675514231000,10.35223095703125,0.10698933899402618,-0.1277613788843155,0.0599859356880188
1730553675524253700,10.362253662109374,0.14267465472221375,-0.13362017273902893,0.07436657696962357
1730553675534281700,10.37228173828125,0.17356640100479126,-0.11018504202365875,0.07975932210683823
1730553675544308000,10.382307861328124,0.1810230314731598,-0.07609758526086807,0.06318163126707077
1730553675554335700,10.392335693359374,0.169838085770607,-0.057988621294498444,0.034952957183122635
1730553675564375600,10.40237548828125,0.15385960042476654,-0.062249556183815,0.02376801148056984
1730553675574404600,10.412404541015626,0.1474681943655014,-0.0515972264111042,0.01950708031654358
1730553675584428800,10.4224287109375,0.14959865808486938,-0.03288906812667847,0.009387366473674774
1730553675594457300,10.432457275390625,0.14587034285068512,-0.026497671380639076,-0.006058512721210718
1730553675604479500,10.4424794921875,0.1368158608675003,-0.02596505545079708,-0.027429750189185143
1730553675614507300,10.45250732421875,0.13042446970939636,-0.005725627299398184,-0.03808208182454109
1730553675624531500,10.462531494140626,0.12350045144557953,0.011850717477500439,-0.03169068321585655
1730553675634559000,10.47255908203125,0.10965242236852646,0.007589785382151604,-0.001797580742277205
1730553675644581600,10.48258154296875,0.09680305421352386,-0.01744319126009941,0.031757257878780365
1730553675654608600,10.492608642578125,0.08615072071552277,-0.03608476743102074,0.05572500079870224
1730553675664641500,10.5026416015625,0.07816147059202194,-0.05585815757513046,0.08135717362165451
1730553675674669300,10.51266943359375,0.06378082931041718,-0.08728253096342087,0.1149120107293129
1730553675684700200,10.5227001953125,0.04620448127388954,-0.11497858911752701,0.145803764462471
1730553675694728200,10.532728271484375,0.04726971685886383,-0.12829400599002838,0.16391272842884064
1730553675704759000,10.542759033203126,0.06804175674915314,-0.1384137123823166,0.1671084314584732
1730553675714787300,10.552787353515624,0.0930747389793396,-0.15392617881298065,0.16497796773910522
1730553675724817000,10.56281689453125,0.12243521958589554,-0.15392617881298065,0.1569887101650238
1730553675734845200,10.57284521484375,0.14107680320739746,-0.14646953344345093,0.13302096724510193
1730553675744858000,10.582858154296876,0.15545743703842163,-0.12350045144557953,0.0936073511838913
1730553675754885000,10.592885009765626,0.17143593728542328,-0.09314130991697311,0.06424686312675476
1730553675764927700,10.602927734375,0.18262088298797607,-0.08142375200986862,0.05892070010304451
1730553675774956300,10.612956298828125,0.19327321648597717,-0.09101084619760513,0.07276873290538788
1730553675784983800,10.62298388671875,0.19859938323497772,-0.11178289353847504,0.0936073511838913
1730553675795012000,10.63301220703125,0.1895449012517929,-0.12350045144557953,0.10905323177576065
1730553675805003000,10.6430029296875,0.17143593728542328,-0.116043820977211,0.10532491654157639
1730553675815027500,10.65302734375,0.15066389739513397,-0.09953270852565765,0.08987903594970703
1730553675825093400,10.66309326171875,0.11977213621139526,-0.08568467944860458,0.06211639940738678
1730553675835122000,10.673121826171876,0.08348763734102249,-0.06970618665218353,0.02802894450724125
1730553675845147000,10.68314697265625,0.054193731397390366,-0.04407401755452156,-0.006058512721210718
1730553675855175200,10.693175048828126,0.04407401755452156,-0.0030625448562204838,-0.018375270068645477
1730553675865188600,10.703188720703125,0.04087831825017929,0.02942706272006035,-0.014114337973296642
1730553675875215400,10.71321533203125,0.03555215150117874,0.03262276202440262,-0.013515143655240536
1730553675885272800,10.72327294921875,0.03928046673536301,0.04547213390469551,-0.008721595630049706
1730553675895302700,10.733302734375,0.05685681104660034,0.060918014496564865,0.006191667169332504
1730553675905323000,10.743322998046875,0.08774857223033905,0.06464632600545883,0.025365861132740974
1730553675915352000,10.75335205078125,0.11977213621139526,0.0465373694896698,0.043474823236465454
1730553675925375000,10.763375,0.15066389739513397,0.019307348877191544,0.055192384868860245
1730553675935403500,10.773403564453124,0.1687728613615036,0.006524552125483751,0.05039883777499199
1730553675945418800,10.783418701171875,0.17622949182987213,0.014513799920678139,0.033887725323438644
1730553675955445800,10.79344580078125,0.18688182532787323,0.047069985419511795,0.011517832055687904
1730553675965485800,10.80348583984375,0.19859938323497772,0.09340762346982956,-0.020505735650658607
1730553675975514000,10.81351416015625,0.20772044360637665,0.12216891348361969,-0.04979964345693588
1730553675985519400,10.823519287109375,0.2226337045431137,0.11631012707948685,-0.06684337556362152
1730553675995545600,10.833545654296875,0.24979715049266815,0.0886140689253807,-0.05565842613577843
1730553676005590300,10.84359033203125,0.28122150897979736,0.05505923181772232,-0.03222329914569855
1730553676015618300,10.853618408203126,0.3073863089084625,0.03794892504811287,-0.020505735650658607
1730553676025642000,10.86364208984375,0.3324192762374878,0.027829213067889214,-0.016777420416474342
1730553676035669500,10.87366943359375,0.3750286102294922,0.01983996480703354,0.0013981183292344213
1730553676045698800,10.88369873046875,0.4304873049259186,0.015046416781842709,0.033887725323438644
1730553676055726300,10.893726318359375,0.4806198179721832,0.009720250964164734,0.0599859356880188
1730553676065722600,10.90372265625,0.5226965546607971,-0.01744319126009941,0.08082455396652222
1730553676075747300,10.913747314453126,0.5551861524581909,-0.04726971685886383,0.09627043455839157
1730553676085812000,10.92381201171875,0.5813509225845337,-0.06864095479249954,0.0936073511838913
1730553676095840500,10.933840576171875,0.5994598865509033,-0.0846194475889206,0.07649704813957214
1730553676105866200,10.9438662109375,0.6122426986694336,-0.07663019746541977,0.047735754400491714
1730553676115894500,10.95389453125,0.63248211145401,-0.02809552103281021,0.02057231217622757
1730553676125924400,10.96392431640625,0.6537867784500122,0.0001331541279796511,0.00991998240351677
1730553676135952600,10.97395263671875,0.7012562155723572,0.013981183059513569,0.02376801148056984
1730553676145980700,10.983980712890625,0.764704167842865,0.047069985419511795,0.057322852313518524
1730553676156009000,10.994009033203126,0.8195636868476868,0.052396148443222046,0.09467258304357529
1730553676166027800,11.00402783203125,0.8510546088218689,0.01770949922502041,0.10639014840126038
1730553676176055300,11.01405517578125,0.8526524305343628,-0.013714875094592571,0.09946613013744354
1730553676186086400,11.02408642578125,0.857446014881134,-0.010519175790250301,0.08188978582620621
1730553676196114200,11.0341142578125,0.873957097530365,0.026763979345560074,0.05572500079870224
1730553676206141000,11.044140869140625,0.887805163860321,0.089146688580513,0.021104929968714714
1730553676216168700,11.054168701171875,0.9064467549324036,0.17762760818004608,-0.027429750189185143
1730553676226204000,11.064203857421875,0.9475247859954834,0.28847840428352356,-0.08335448056459427
1730553676236232200,11.074232177734375,1.0018516778945923,0.3908073604106903,-0.1254977583885193
1730553676246249000,11.0842490234375,1.0493210554122925,0.4238961637020111,-0.15372644364833832
1730553676256276000,11.09427587890625,1.0812780857086182,0.37376365065574646,-0.16917231678962708
1730553676266311400,11.1043115234375,1.0850063562393188,0.3172397017478943,-0.18302035331726074
1730553676276339500,11.11433935546875,1.0652996301651,0.2820870280265808,-0.2001306563615799
1730553676286388200,11.12438818359375,1.034940481185913,0.2314884513616562,-0.1995980441570282
1730553676296418600,11.13441845703125,1.009840965270996,0.1872147023677826,-0.18142250180244446
1730553676306417400,11.14441748046875,1.0039820671081543,0.14939893782138824,-0.16278092563152313
1730553676316444400,11.1544443359375,1.003449559211731,0.1322886198759079,-0.1569221466779709
1730553676326498300,11.164498291015626,0.99599289894104,0.15738818049430847,-0.1665092408657074
1730553676336528000,11.17452783203125,0.997058093547821,0.21171505749225616,-0.17982465028762817
1730553676346550500,11.184550537109375,1.012503981590271,0.24267339706420898,-0.18248772621154785
1730553676356579600,11.19457958984375,1.0509189367294312,0.20053011178970337,-0.1974010020494461
1730553676366603500,11.204603515625,1.0392013788223267,0.08648360520601273,-0.17130278050899506
1730553676376632000,11.214632080078125,0.9693620800971985,-0.05426030606031418,-0.12816084921360016
1730553676386659000,11.2246591796875,0.8776854276657104,-0.16191542148590088,-0.1558569073677063
1730553676396687400,11.234687255859376,0.8035851716995239,-0.19387240707874298,-0.21877223253250122
1730553676406725000,11.24472509765625,0.7934654355049133,-0.16724158823490143,-0.27842527627944946
1730553676416754400,11.25475439453125,0.8435314297676086,-0.10858719050884247,-0.3631778955459595
1730553676426771500,11.264771484375,0.9149686098098755,-0.01957365684211254,-0.5108458399772644
1730553676436799500,11.274799560546874,0.9645684957504272,0.049200449138879776,-0.7581796050071716
1730553676446829600,11.28482958984375,0.9752208590507507,-0.004660394508391619,-0.9841421842575073
1730553676456857900,11.29485791015625,0.9922645688056946,-0.17895914614200592,-1.0917972326278687
1730553676466897200,11.304897216796874,0.9059141278266907,-0.36870378255844116,-0.8503888249397278
1730553676476926500,11.314926513671875,0.37982216477394104,-0.15445879101753235,0.3627784252166748
1730553676486937600,11.3249375,0.29566875100135803,-0.18268746137619019,0.5525230765342712
1730553676496965000,11.334965087890625,0.4400743842124939,-0.16777420043945312,0.4282902479171753
1730553676506971000,11.344970947265624,0.4059869349002838,-0.20878566801548004,0.3958006501197815
1730553676516996400,11.354996337890626,0.42196542024612427,-0.307918906211853,0.45445504784584045
1730553676527055000,11.36505517578125,0.5525230765342712,-0.5499265193939209,0.48587942123413086
1730553676537084000,11.375083984375,0.6980605125427246,-0.5174369215965271,0.4517919421195984
1730553676547112000,11.38511181640625,0.8499893546104431,-0.19440503418445587,0.396333247423172
1730553676557140500,11.395140380859376,0.8814137578010559,0.022503048181533813,0.28388461470603943
1730553676567160600,11.40516064453125,0.8792833089828491,0.12856030464172363,0.2316216081380844
1730553676577188600,11.415188720703124,0.8782180547714233,0.20106273889541626,0.2113821804523468
1730553676587223600,11.4252236328125,0.8755549788475037,0.2650432884693146,0.1671084314584732
1730553676597252000,11.435252197265624,0.9021857976913452,0.33275216817855835,0.1138467788696289
1730553676607283200,11.445283203125,0.9491226077079773,0.4121786057949066,0.07543181627988815
1730553676617312000,11.45531201171875,1.0018516778945923,0.4574510157108307,0.046670522540807724
1730553676627333600,11.465333740234374,1.068495273590088,0.3801550269126892,0.024300629273056984
1730553676637361700,11.475361572265625,1.1324758529663086,0.2645106613636017,0.01045259926468134
1730553676647389200,11.48538916015625,1.1942594051361084,0.23202106356620789,0.006724283564835787
1730553676657417200,11.495417236328125,1.2342722415924072,0.28102177381515503,-0.024234050884842873
1730553676667448600,11.505448486328126,1.227880835533142,0.32476291060447693,-0.12922608852386475
1730553676677476900,11.515476806640624,1.1868027448654175,0.30765262246131897,-0.2640446424484253
1730553676687477500,11.5254775390625,1.1596393585205078,0.31031569838523865,-0.36584097146987915
1730553676697503200,11.535503173828126,1.1511174440383911,0.3929378390312195,-0.4388760030269623
1730553676707559200,11.54555908203125,1.1319432258605957,0.4659728705883026,-0.4660394489765167
1730553676717588000,11.555587890625,1.1298127174377441,0.40998154878616333,-0.4239627420902252
1730553676727616300,11.5656162109375,1.1639002561569214,0.26877161860466003,-0.3487972319126129
1730553676737644800,11.575644775390625,1.2139661312103271,0.13874660432338715,-0.27096864581108093
1730553676747654100,11.585654052734375,1.2395983934402466,0.0027962366584688425,-0.20865251123905182
1730553676757681000,11.595680908203125,1.2225546836853027,-0.10272841155529022,-0.1659766137599945
1730553676767691500,11.60569140625,1.2043790817260742,-0.1597849577665329,-0.15159597992897034
1730553676777716500,11.615716552734375,1.2091726064682007,-0.1597849577665329,-0.156389519572258
1730553676787762400,11.625762451171875,1.2433266639709473,-0.08621729910373688,-0.1547916680574417
1730553676797789700,11.635789794921875,1.300849199295044,0.02623136341571808,-0.14680242538452148
1730553676807829200,11.645829345703126,1.3275465965270996,0.1099187359213829,-0.12656299769878387
1730553676817857800,11.65585791015625,1.330742359161377,0.08328790962696075,-0.04074516147375107
1730553676827880000,11.6658798828125,1.3419272899627686,-0.014780107885599136,0.06957302987575531
1730553676837908000,11.675907958984375,1.3403294086456299,-0.06544525176286697,0.11065108329057693
1730553676847947000,11.685947021484376,1.3222204446792603,-0.047802332788705826,0.08721595257520676
1730553676857976000,11.69597607421875,1.2550442218780518,0.03954677656292915,0.01364829856902361
1730553676867996400,11.705996337890625,1.168161153793335,0.16271434724330902,-0.07589785009622574
1730553676878024700,11.716024658203125,1.1153655052185059,0.23255369067192078,-0.12283468246459961
1730553676888039200,11.7260390625,1.075419306755066,0.2309558391571045,-0.11910636723041534
1730553676898066000,11.73606591796875,1.0711584091186523,0.23521676659584045,-0.08708280324935913
1730553676908102700,11.7461025390625,1.1105719804763794,0.23787984251976013,-0.027962366119027138
1730553676918130400,11.75613037109375,1.1463239192962646,0.1872147023677826,0.05146406963467598
1730553676928158000,11.766157958984374,1.1473891735076904,0.11471228301525116,0.12876003980636597
1730553676938185700,11.776185791015624,1.1383346319198608,0.08275528997182846,0.18634919822216034
1730553676948194300,11.7861943359375,1.1399325132369995,0.1322886198759079,0.20605601370334625
1730553676958220000,11.796219970703126,1.1415303945541382,0.2703694701194763,0.14953207969665527
1730553676968266200,11.806266357421874,1.1713569164276123,0.4014596939086914,0.05679023638367653
1730553676978294000,11.8162939453125,1.2395983934402466,0.4776904284954071,0.00991998240351677
1730553676988341500,11.826341552734375,1.307773232460022,0.48408183455467224,-0.01298252772539854
1730553676998371300,11.836371337890625,1.3547101020812988,0.4691685736179352,-0.07323476672172546
1730553677008392000,11.846391845703126,1.377079963684082,0.46330979466438293,-0.14733503758907318
1730553677018420700,11.856420654296874,1.3856018781661987,0.42762449383735657,-0.19154220819473267
1730553677028441000,11.866441162109375,1.3973194360733032,0.3028590679168701,-0.1755637228488922
1730553677038469000,11.87646923828125,1.4341365098953247,0.13388647139072418,-0.09933298081159592
1730553677048507400,11.88650732421875,1.461300015449524,-0.07130403816699982,0.0003328853053972125
1730553677058536400,11.896536376953126,1.4575716257095337,-0.3740299344062805,0.11065108329057693
1730553677068557300,11.906557373046875,1.4352017641067505,-0.6911364793777466,0.1906101405620575
1730553677078585300,11.91658544921875,1.361101508140564,-0.9198287129402161,0.2012624591588974
1730553677088613600,11.926613525390625,1.2118357419967651,-0.835076093673706,0.09946613013744354
1730553677098642000,11.936641845703125,1.074886679649353,-0.4075847864151001,-0.01298252772539854
1730553677108673800,11.946673828125,0.9906666874885559,0.0678420290350914,-0.07856093347072601
1730553677118702600,11.95670263671875,0.9400681257247925,0.4989950954914093,-0.14147625863552094
