time,seconds_elapsed,z,y,x
1730553665305732900,0.14373291015625,9.851250648498535,-0.10169496387243271,0.22073788940906525
1730553665315759900,0.153759765625,9.853643417358398,-0.07776673883199692,0.22791635990142822
1730553665325811700,0.163811767578125,9.863214492797852,-0.05832505226135254,0.2470589429140091
1730553665335838700,0.173838623046875,9.83420181274414,-0.0487537607550621,0.22791635990142822
1730553665345871600,0.18387158203125,9.851250648498535,-0.03678964823484421,0.21595224738121033
1730553665355900400,0.193900390625,9.836594581604004,-0.02961117960512638,0.23270200192928314
1730553665365928000,0.203927978515625,9.822237968444824,-0.03918246924877167,0.22791635990142822
1730553665375956200,0.213956298828125,9.83420181274414,-0.06071787327528,0.21595224738121033
1730553665386007800,0.2240078125,9.829416275024414,-0.06311069428920746,0.21595224738121033
1730553665396045600,0.234045654296875,9.860821723937988,-0.0849452018737793,0.21355941891670227
1730553665406030000,0.244030029296875,9.851250648498535,-0.05114658549427986,0.2231307178735733
1730553665416046300,0.25404638671875,9.851250648498535,-0.0849452018737793,0.23030917346477509
1730553665426105600,0.264105712890625,9.863214492797852,-0.08733802288770676,0.22552353143692017
1730553665436139300,0.27413916015625,9.848857879638672,-0.08973085135221481,0.23030917346477509
1730553665446152000,0.28415185546875,9.846165657043457,-0.06819544732570648,0.23988047242164612
1730553665456177200,0.29417724609375,9.843772888183594,-0.05353940650820732,0.24945175647735596
1730553665466206000,0.3042060546875,9.836594581604004,-0.024825535714626312,0.22791635990142822
1730553665476232700,0.314232666015625,9.858428955078125,-0.027218356728553772,0.22791635990142822
1730553665486242800,0.324242919921875,9.858428955078125,-0.043968115001916885,0.21595224738121033
1730553665496263000,0.334262939453125,9.82702350616455,-0.043968115001916885,0.2111666053533554
1730553665506318300,0.344318359375,9.831809043884277,-0.0487537607550621,0.20877377688884735
1730553665516352800,0.354352783203125,9.860821723937988,-0.08733802288770676,0.22073788940906525
1730553665526381300,0.36438134765625,9.856036186218262,-0.0849452018737793,0.21595224738121033
1730553665536413400,0.374413330078125,9.843772888183594,-0.0849452018737793,0.2231307178735733
1730553665546432800,0.384432861328125,9.836594581604004,-0.06819544732570648,0.23270200192928314
1730553665556459500,0.39445947265625,9.84138011932373,-0.07058826833963394,0.23030917346477509
1730553665566489000,0.404489013671875,9.84138011932373,-0.06819544732570648,0.22552353143692017
1730553665576517000,0.41451708984375,9.843772888183594,-0.05353940650820732,0.24227328598499298
1730553665586562800,0.424562744140625,9.868000984191895,-0.05593222752213478,0.22791635990142822
1730553665596597800,0.43459765625,9.843772888183594,-0.05353940650820732,0.2063809484243393
1730553665606620400,0.444620361328125,9.838987350463867,-0.06311069428920746,0.2111666053533554
1730553665616650200,0.454650146484375,9.858428955078125,-0.07058826833963394,0.2111666053533554
1730553665626662100,0.464662109375,9.860821723937988,-0.06071787327528,0.20159530639648438
1730553665636684800,0.474684814453125,9.836594581604004,-0.07058826833963394,0.21595224738121033
1730553665646730000,0.48472998046875,9.82702350616455,-0.07058826833963394,0.22791635990142822
1730553665656755000,0.4947548828125,9.858428955078125,-0.05832505226135254,0.23030917346477509
1730553665666763000,0.504762939453125,9.856036186218262,-0.0849452018737793,0.22791635990142822
1730553665676786400,0.514786376953125,9.863214492797852,-0.08255238085985184,0.22791635990142822
1730553665686837200,0.524837158203125,9.846165657043457,-0.06071787327528,0.23988047242164612
1730553665696863500,0.534863525390625,9.843772888183594,-0.06819544732570648,0.2231307178735733
1730553665706892300,0.544892333984375,9.838987350463867,-0.041575293987989426,0.23030917346477509
1730553665716918800,0.554918701171875,9.851250648498535,-0.05114658549427986,0.22552353143692017
1730553665726954000,0.5649541015625,9.838987350463867,-0.07058826833963394,0.22073788940906525
1730553665736981200,0.574981201171875,9.84138011932373,-0.05832505226135254,0.21355941891670227
1730553665746984200,0.584984130859375,9.851250648498535,-0.08015955984592438,0.2231307178735733
1730553665757009200,0.595009033203125,9.848857879638672,-0.0849452018737793,0.20877377688884735
1730553665767067600,0.605067626953125,9.860821723937988,-0.06819544732570648,0.21595224738121033
1730553665777096000,0.615095947265625,9.853643417358398,-0.06819544732570648,0.23270200192928314
1730553665787120000,0.6251201171875,9.836594581604004,-0.06550352275371552,0.22552353143692017
1730553665797148000,0.63514794921875,9.824630737304688,-0.05832505226135254,0.23030917346477509
1730553665807180000,0.645179931640625,9.836594581604004,-0.06071787327528,0.2231307178735733
1730553665817208000,0.6552080078125,9.846165657043457,-0.05593222752213478,0.23270200192928314
1730553665827214600,0.665214599609375,9.865608215332031,-0.05114658549427986,0.2350948303937912
1730553665837240800,0.67524072265625,9.836594581604004,-0.06071787327528,0.22791635990142822
1730553665847287300,0.685287353515625,9.848857879638672,-0.05832505226135254,0.2231307178735733
1730553665857315600,0.695315673828125,9.846165657043457,-0.0729810893535614,0.2111666053533554
1730553665867338800,0.7053388671875,9.846165657043457,-0.05114658549427986,0.20877377688884735
1730553665877366500,0.715366455078125,9.83420181274414,-0.07537391036748886,0.22552353143692017
1730553665887396600,0.725396728515625,9.83420181274414,-0.06819544732570648,0.22552353143692017
1730553665897424600,0.735424560546875,9.851250648498535,-0.05832505226135254,0.23270200192928314
1730553665907451100,0.745451171875,9.83420181274414,-0.05832505226135254,0.23748764395713806
1730553665917479000,0.75547900390625,9.843772888183594,-0.06311069428920746,0.2183450609445572
1730553665927519500,0.76551953125,9.856036186218262,-0.07537391036748886,0.2183450609445572
1730553665937548500,0.775548583984375,9.829416275024414,-0.0849452018737793,0.2231307178735733
1730553665947564500,0.785564453125,9.848857879638672,-0.0729810893535614,0.2183450609445572
1730553665957592000,0.795592041015625,9.846165657043457,-0.06071787327528,0.22791635990142822
1730553665967622700,0.80562255859375,9.851250648498535,-0.05832505226135254,0.2350948303937912
1730553665977650700,0.815650634765625,9.84138011932373,-0.05114658549427986,0.22073788940906525
1730553665987669200,0.825669189453125,9.851250648498535,-0.0487537607550621,0.22791635990142822
1730553665997696300,0.8356962890625,9.843772888183594,-0.06819544732570648,0.2350948303937912
1730553666007712500,0.84571240234375,9.838987350463867,-0.05832505226135254,0.21355941891670227
1730553666017738500,0.855738525390625,9.863214492797852,-0.07058826833963394,0.20877377688884735
1730553666027779800,0.86577978515625,9.843772888183594,-0.0729810893535614,0.20398813486099243
1730553666037807400,0.875807373046875,9.848857879638672,-0.07776673883199692,0.21595224738121033
1730553666047842800,0.8858427734375,9.868000984191895,-0.06550352275371552,0.21355941891670227
1730553666057871000,0.89587109375,9.84138011932373,-0.05593222752213478,0.2231307178735733
1730553666067902500,0.90590234375,9.853643417358398,-0.043968115001916885,0.23030917346477509
1730553666077931300,0.91593115234375,9.846165657043457,-0.05114658549427986,0.21595224738121033
1730553666087955200,0.925955078125,9.84138011932373,-0.05593222752213478,0.2231307178735733
1730553666097983500,0.9359833984375,9.851250648498535,-0.05593222752213478,0.23270200192928314
1730553666108014000,0.94601416015625,9.846165657043457,-0.05353940650820732,0.22791635990142822
1730553666118042600,0.956042724609375,9.858428955078125,-0.0849452018737793,0.21595224738121033
1730553666128053200,0.96605322265625,9.846165657043457,-0.08015955984592438,0.20159530639648438
1730553666138079700,0.976079833984375,9.856036186218262,-0.07537391036748886,0.20877377688884735
1730553666148123400,0.986123291015625,9.856036186218262,-0.08733802288770676,0.22073788940906525
1730553666158151700,0.996151611328125,9.84138011932373,-0.05114658549427986,0.21595224738121033
1730553666168173800,1.006173828125,9.836594581604004,-0.027218356728553772,0.22552353143692017
1730553666178201600,1.01620166015625,9.858428955078125,-0.05353940650820732,0.23988047242164612
1730553666188237800,1.02623779296875,9.858428955078125,-0.06550352275371552,0.23030917346477509
1730553666198266400,1.036266357421875,9.843772888183594,-0.07058826833963394,0.22552353143692017
1730553666208297500,1.04629736328125,9.84138011932373,-0.07537391036748886,0.23270200192928314
1730553666218326300,1.056326171875,9.851250648498535,-0.0729810893535614,0.23748764395713806
1730553666228340200,1.06634033203125,9.863214492797852,-0.06311069428920746,0.21355941891670227
1730553666238367500,1.076367431640625,9.853643417358398,-0.06550352275371552,0.22073788940906525
1730553666248403000,1.08640283203125,9.838987350463867,-0.07776673883199692,0.2231307178735733
1730553666258431000,1.096430908203125,9.843772888183594,-0.07058826833963394,0.23030917346477509
1730553666268433200,1.10643310546875,9.846165657043457,-0.07058826833963394,0.23030917346477509
1730553666278458600,1.116458740234375,9.848857879638672,-0.05114658549427986,0.22552353143692017
1730553666288511500,1.126511474609375,9.851250648498535,-0.03678964823484421,0.2231307178735733
1730553666298539800,1.136539794921875,9.83420181274414,-0.05353940650820732,0.2350948303937912
1730553666308578800,1.146578857421875,9.84138011932373,-0.05593222752213478,0.22791635990142822
1730553666318608100,1.156608154296875,9.838987350463867,-0.06311069428920746,0.21355941891670227
1730553666328612400,1.1666123046875,9.836594581604004,-0.07776673883199692,0.2231307178735733
1730553666338639000,1.17663916015625,9.84138011932373,-0.08733802288770676,0.21355941891670227
1730553666348682500,1.1866826171875,9.853643417358398,-0.06819544732570648,0.22552353143692017
1730553666358711000,1.1967109375,9.853643417358398,-0.06311069428920746,0.23030917346477509
1730553666368741400,1.206741455078125,9.838987350463867,-0.07537391036748886,0.21595224738121033
1730553666378770000,1.21677001953125,9.843772888183594,-0.06311069428920746,0.22073788940906525
1730553666388791300,1.226791259765625,9.838987350463867,-0.05593222752213478,0.2183450609445572
1730553666398819300,1.2368193359375,9.838987350463867,-0.06071787327528,0.2183450609445572
1730553666408859000,1.24685888671875,9.84138011932373,-0.05832505226135254,0.22073788940906525
1730553666418888000,1.256887939453125,9.843772888183594,-0.05832505226135254,0.21355941891670227
1730553666428902100,1.266902099609375,9.853643417358398,-0.03678964823484421,0.2231307178735733
1730553666438930000,1.276929931640625,9.856036186218262,-0.05832505226135254,0.23030917346477509
1730553666448943900,1.28694384765625,9.851250648498535,-0.06311069428920746,0.23030917346477509
1730553666458970000,1.29697021484375,9.858428955078125,-0.08255238085985184,0.2350948303937912
1730553666469023000,1.30702294921875,9.848857879638672,-0.08015955984592438,0.22552353143692017
1730553666479052000,1.317052001953125,9.83420181274414,-0.06071787327528,0.2111666053533554
1730553666489054500,1.327054443359375,9.851250648498535,-0.07776673883199692,0.22552353143692017
1730553666499080700,1.337080810546875,9.856036186218262,-0.046360939741134644,0.22073788940906525
1730553666509142300,1.347142333984375,9.856036186218262,-0.06550352275371552,0.23030917346477509
1730553666519172000,1.357172119140625,9.843772888183594,-0.06071787327528,0.22791635990142822
1730553666529150000,1.36714990234375,9.846165657043457,-0.05353940650820732,0.2231307178735733
1730553666539174700,1.377174560546875,9.853643417358398,-0.07058826833963394,0.23988047242164612
1730553666549241300,1.387241455078125,9.836594581604004,-0.05832505226135254,0.23270200192928314
1730553666559270400,1.3972705078125,9.846165657043457,-0.06550352275371552,0.22791635990142822
1730553666569299000,1.407298828125,9.863214492797852,-0.0729810893535614,0.22552353143692017
1730553666579327700,1.41732763671875,9.846165657043457,-0.07537391036748886,0.22073788940906525
1730553666589349400,1.427349365234375,9.846165657043457,-0.0729810893535614,0.21355941891670227
1730553666599377700,1.437377685546875,9.851250648498535,-0.07058826833963394,0.22552353143692017
1730553666609404400,1.447404296875,9.851250648498535,-0.05593222752213478,0.2183450609445572
1730553666619432200,1.45743212890625,9.872786521911621,-0.043968115001916885,0.2183450609445572
1730553666629461500,1.46746142578125,9.853643417358398,-0.05353940650820732,0.22073788940906525
1730553666639489800,1.47748974609375,9.829416275024414,-0.0487537607550621,0.2350948303937912
1730553666649513700,1.487513671875,9.848857879638672,-0.05832505226135254,0.2231307178735733
1730553666659541500,1.49754150390625,9.856036186218262,-0.0729810893535614,0.23030917346477509
1730553666669578200,1.507578125,9.853643417358398,-0.0729810893535614,0.22552353143692017
1730553666679606800,1.517606689453125,9.843772888183594,-0.06071787327528,0.22073788940906525
1730553666689630500,1.52763037109375,9.838987350463867,-0.07537391036748886,0.22552353143692017
1730553666699658500,1.537658447265625,9.851250648498535,-0.05593222752213478,0.23270200192928314
1730553666709653200,1.5476533203125,9.848857879638672,-0.0729810893535614,0.23030917346477509
1730553666719678000,1.557677978515625,9.838987350463867,-0.06311069428920746,0.21355941891670227
1730553666729730800,1.567730712890625,9.848857879638672,-0.05593222752213478,0.22073788940906525
1730553666739758600,1.577758544921875,9.851250648498535,-0.0487537607550621,0.21595224738121033
1730553666749814300,1.587814208984375,9.865608215332031,-0.043968115001916885,0.22073788940906525
1730553666759844900,1.597844970703125,9.829416275024414,-0.06819544732570648,0.2231307178735733
1730553666769846800,1.6078466796875,9.822237968444824,-0.06819544732570648,0.22791635990142822
1730553666779874600,1.61787451171875,9.848857879638672,-0.07058826833963394,0.22552353143692017
1730553666789906200,1.62790625,9.856036186218262,-0.07776673883199692,0.23270200192928314
1730553666799934200,1.637934326171875,9.838987350463867,-0.0729810893535614,0.23030917346477509
1730553666809961200,1.647961181640625,9.848857879638672,-0.06819544732570648,0.22791635990142822
1730553666819989000,1.657989013671875,9.843772888183594,-0.06819544732570648,0.22552353143692017
1730553666830010000,1.668010009765625,9.848857879638672,-0.06311069428920746,0.23030917346477509
1730553666840037000,1.678037109375,9.848857879638672,-0.05353940650820732,0.22552353143692017
1730553666850083800,1.688083740234375,9.846165657043457,-0.06819544732570648,0.22073788940906525
1730553666860113200,1.698113037109375,9.860821723937988,-0.06550352275371552,0.22552353143692017
1730553666870143000,1.70814306640625,9.831809043884277,-0.06071787327528,0.23988047242164612
1730553666880172300,1.71817236328125,9.851250648498535,-0.06550352275371552,0.22073788940906525
1730553666890192600,1.728192626953125,9.831809043884277,-0.06071787327528,0.20877377688884735
1730553666900221000,1.738220947265625,9.83420181274414,-0.06550352275371552,0.2350948303937912
1730553666910261200,1.74826123046875,9.870393753051758,-0.05353940650820732,0.21595224738121033
1730553666920290800,1.758290771484375,9.84138011932373,-0.05114658549427986,0.2183450609445572
1730553666930307300,1.768307373046875,9.843772888183594,-0.07058826833963394,0.22791635990142822
1730553666940335600,1.778335693359375,9.851250648498535,-0.06071787327528,0.2231307178735733
1730553666950365400,1.788365478515625,9.865608215332031,-0.06819544732570648,0.21595224738121033
1730553666960393700,1.798393798828125,9.838987350463867,-0.08255238085985184,0.23030917346477509
1730553666970391600,1.8083916015625,9.846165657043457,-0.06311069428920746,0.22073788940906525
1730553666980416800,1.818416748046875,9.848857879638672,-0.06311069428920746,0.22791635990142822
1730553666990472200,1.82847216796875,9.851250648498535,-0.06819544732570648,0.2231307178735733
1730553667000500500,1.83850048828125,9.838987350463867,-0.05593222752213478,0.23748764395713806
1730553667010535400,1.848535400390625,9.824630737304688,-0.06311069428920746,0.22552353143692017
1730553667020564200,1.858564208984375,9.848857879638672,-0.05593222752213478,0.22552353143692017
1730553667030584600,1.86858447265625,9.863214492797852,-0.06311069428920746,0.22791635990142822
1730553667040612600,1.878612548828125,9.851250648498535,-0.07776673883199692,0.22791635990142822
1730553667050642700,1.888642578125,9.831809043884277,-0.06071787327528,0.22073788940906525
1730553667060671000,1.8986708984375,9.856036186218262,-0.06819544732570648,0.21595224738121033
1730553667070700800,1.90870068359375,9.83420181274414,-0.06311069428920746,0.22073788940906525
1730553667080729000,1.91872900390625,9.838987350463867,-0.0849452018737793,0.2350948303937912
1730553667090725600,1.9287255859375,9.838987350463867,-0.07058826833963394,0.23030917346477509
1730553667100750800,1.938750732421875,9.843772888183594,-0.07058826833963394,0.22791635990142822
1730553667110815200,1.948815185546875,9.82702350616455,-0.09212367236614227,0.22073788940906525
1730553667120844300,1.95884423828125,9.843772888183594,-0.06550352275371552,0.22552353143692017
1730553667130870300,1.968870361328125,9.858428955078125,-0.0487537607550621,0.23988047242164612
1730553667140899000,1.978899169921875,9.836594581604004,-0.046360939741134644,0.23270200192928314
1730553667150924500,1.988924560546875,9.84138011932373,-0.06311069428920746,0.23748764395713806
1730553667160953000,1.998953125,9.846165657043457,-0.06550352275371552,0.23030917346477509
1730553667170975000,2.00897509765625,9.863214492797852,-0.05832505226135254,0.23270200192928314
1730553667181002800,2.019002685546875,9.846165657043457,-0.06071787327528,0.22791635990142822
1730553667191033600,2.02903369140625,9.851250648498535,-0.06071787327528,0.22073788940906525
1730553667201062000,2.039061767578125,9.856036186218262,-0.08015955984592438,0.2183450609445572
1730553667211097300,2.049097412109375,9.868000984191895,-0.0729810893535614,0.22552353143692017
1730553667221126100,2.059126220703125,9.851250648498535,-0.05832505226135254,0.21595224738121033
1730553667231115000,2.069114990234375,9.84138011932373,-0.06550352275371552,0.2183450609445572
1730553667241140000,2.079139892578125,9.848857879638672,-0.07058826833963394,0.22791635990142822
1730553667251197000,2.089197021484375,9.851250648498535,-0.06071787327528,0.23270200192928314
1730553667261225000,2.099224853515625,9.838987350463867,-0.06550352275371552,0.22791635990142822
1730553667271256000,2.109256103515625,9.83420181274414,-0.06071787327528,0.22791635990142822
1730553667281284400,2.119284423828125,9.858428955078125,-0.06071787327528,0.23270200192928314
1730553667291307300,2.129307373046875,9.851250648498535,-0.03678964823484421,0.22073788940906525
1730553667301335000,2.1393349609375,9.848857879638672,-0.0729810893535614,0.22073788940906525
1730553667311356400,2.1493564453125,9.860821723937988,-0.07537391036748886,0.21355941891670227
1730553667321383400,2.159383544921875,9.851250648498535,-0.05593222752213478,0.22791635990142822
1730553667331410400,2.169410400390625,9.84138011932373,-0.08015955984592438,0.21355941891670227
1730553667341437400,2.1794375,9.851250648498535,-0.06550352275371552,0.22073788940906525
1730553667351464400,2.18946435546875,9.843772888183594,-0.06550352275371552,0.22791635990142822
1730553667361491500,2.199491455078125,9.846165657043457,-0.06071787327528,0.22791635990142822
1730553667371516700,2.2095166015625,9.851250648498535,-0.0729810893535614,0.2231307178735733
1730553667381543400,2.21954345703125,9.863214492797852,-0.06311069428920746,0.21355941891670227
1730553667391575300,2.2295751953125,9.846165657043457,-0.08255238085985184,0.22552353143692017
1730553667401602800,2.239602783203125,9.838987350463867,-0.05832505226135254,0.23748764395713806
1730553667411625000,2.249625,9.851250648498535,-0.07776673883199692,0.22552353143692017
1730553667421652000,2.25965185546875,9.853643417358398,-0.06311069428920746,0.22791635990142822
1730553667431688400,2.2696884765625,9.853643417358398,-0.0729810893535614,0.22552353143692017
1730553667441716500,2.279716552734375,9.843772888183594,-0.07537391036748886,0.23030917346477509
1730553667451739000,2.28973876953125,9.848857879638672,-0.043968115001916885,0.22073788940906525
1730553667461766400,2.299766357421875,9.829416275024414,-0.06311069428920746,0.22073788940906525
1730553667471865600,2.309865478515625,9.848857879638672,-0.06819544732570648,0.22552353143692017
1730553667481900000,2.319900146484375,9.846165657043457,-0.06550352275371552,0.23030917346477509
1730553667491867000,2.329866943359375,9.83420181274414,-0.07058826833963394,0.2231307178735733
1730553667501894700,2.339894775390625,9.836594581604004,-0.0729810893535614,0.21595224738121033
1730553667511914800,2.349914794921875,9.829416275024414,-0.0729810893535614,0.21355941891670227
1730553667521941800,2.359941650390625,9.838987350463867,-0.06819544732570648,0.23030917346477509
1730553667531963600,2.369963623046875,9.83420181274414,-0.07058826833963394,0.22791635990142822
1730553667541990100,2.379990234375,9.84138011932373,-0.06550352275371552,0.2231307178735733
1730553667552024300,2.3900244140625,9.851250648498535,-0.05832505226135254,0.22552353143692017
1730553667562051600,2.400051513671875,9.853643417358398,-0.0729810893535614,0.21355941891670227
1730553667572091000,2.4100908203125,9.836594581604004,-0.06819544732570648,0.22552353143692017
1730553667582119400,2.420119384765625,9.843772888183594,-0.0729810893535614,0.22073788940906525
1730553667592147700,2.430147705078125,9.856036186218262,-0.06311069428920746,0.21355941891670227
1730553667602176300,2.44017626953125,9.853643417358398,-0.06819544732570648,0.22552353143692017
1730553667612205800,2.450205810546875,9.82702350616455,-0.06311069428920746,0.24227328598499298
1730553667622234400,2.460234375,9.846165657043457,-0.06550352275371552,0.21595224738121033
1730553667632260900,2.4702607421875,9.84138011932373,-0.07537391036748886,0.23270200192928314
1730553667642289200,2.4802890625,9.84138011932373,-0.0729810893535614,0.23270200192928314
1730553667652317000,2.49031689453125,9.846165657043457,-0.07058826833963394,0.22791635990142822
1730553667662345200,2.50034521484375,9.843772888183594,-0.0729810893535614,0.22552353143692017
1730553667672360000,2.51035986328125,9.843772888183594,-0.05832505226135254,0.22073788940906525
1730553667682387000,2.520386962890625,9.856036186218262,-0.06550352275371552,0.22073788940906525
1730553667692429800,2.530429931640625,9.843772888183594,-0.0729810893535614,0.22073788940906525
1730553667702458400,2.540458251953125,9.83420181274414,-0.06071787327528,0.23270200192928314
1730553667712486400,2.550486328125,9.846165657043457,-0.0849452018737793,0.2350948303937912
1730553667722514700,2.5605146484375,9.836594581604004,-0.07776673883199692,0.24227328598499298
1730553667732546600,2.570546630859375,9.848857879638672,-0.08733802288770676,0.22552353143692017
1730553667742575400,2.580575439453125,9.843772888183594,-0.06819544732570648,0.21595224738121033
1730553667752592400,2.59059228515625,9.848857879638672,-0.05353940650820732,0.2231307178735733
1730553667762620000,2.600619873046875,9.853643417358398,-0.07058826833963394,0.23270200192928314
1730553667772651000,2.610651123046875,9.853643417358398,-0.06071787327528,0.21595224738121033
1730553667782679000,2.620678955078125,9.851250648498535,-0.06071787327528,0.21595224738121033
1730553667792707600,2.63070751953125,9.860821723937988,-0.041575293987989426,0.23748764395713806
1730553667802735600,2.640735595703125,9.868000984191895,-0.07058826833963394,0.23030917346477509
1730553667812761300,2.65076123046875,9.853643417358398,-0.05593222752213478,0.22552353143692017
1730553667822789000,2.6607890625,9.853643417358398,-0.05832505226135254,0.2231307178735733
1730553667832820700,2.67082080078125,9.856036186218262,-0.0729810893535614,0.20877377688884735
1730553667842848800,2.680848876953125,9.846165657043457,-0.08015955984592438,0.2111666053533554
1730553667852876800,2.690876708984375,9.836594581604004,-0.07537391036748886,0.2111666053533554
1730553667862904800,2.70090478515625,9.824630737304688,-0.06071787327528,0.2231307178735733
1730553667872929800,2.7109296875,9.838987350463867,-0.046360939741134644,0.23748764395713806
1730553667882957600,2.72095751953125,9.848857879638672,-0.046360939741134644,0.22791635990142822
1730553667892989700,2.73098974609375,9.848857879638672,-0.07058826833963394,0.22073788940906525
1730553667903018000,2.74101806640625,9.838987350463867,-0.06071787327528,0.2231307178735733
1730553667913041400,2.75104150390625,9.831809043884277,-0.08015955984592438,0.2231307178735733
1730553667923069200,2.761069091796875,9.843772888183594,-0.06550352275371552,0.2183450609445572
1730553667933099500,2.771099609375,9.836594581604004,-0.07058826833963394,0.21355941891670227
1730553667943127600,2.78112744140625,9.836594581604004,-0.07058826833963394,0.2111666053533554
1730553667953160000,2.791159912109375,9.846165657043457,-0.0849452018737793,0.22073788940906525
1730553667963188500,2.8011884765625,9.84138011932373,-0.08015955984592438,0.22552353143692017
1730553667973206300,2.811206298828125,9.858428955078125,-0.06550352275371552,0.2183450609445572
1730553667983233500,2.821233642578125,9.851250648498535,-0.041575293987989426,0.23030917346477509
1730553667993268000,2.83126806640625,9.84138011932373,-0.03918246924877167,0.22791635990142822
1730553668003296300,2.841296142578125,9.853643417358398,-0.05114658549427986,0.2183450609445572
1730553668013332500,2.85133251953125,9.851250648498535,-0.06550352275371552,0.2231307178735733
1730553668023361500,2.861361572265625,9.846165657043457,-0.06550352275371552,0.22073788940906525
1730553668033379000,2.871379150390625,9.853643417358398,-0.07058826833963394,0.21595224738121033
1730553668043406800,2.88140673828125,9.83420181274414,-0.08733802288770676,0.22073788940906525
1730553668053436400,2.8914365234375,9.83420181274414,-0.08255238085985184,0.22791635990142822
1730553668063464400,2.90146435546875,9.822237968444824,-0.05593222752213478,0.22791635990142822
1730553668073492700,2.91149267578125,9.838987350463867,-0.05832505226135254,0.2183450609445572
1730553668083520800,2.921520751953125,9.838987350463867,-0.05114658549427986,0.2183450609445572
1730553668093551900,2.9315517578125,9.848857879638672,-0.05353940650820732,0.22073788940906525
1730553668103580200,2.941580078125,9.853643417358398,-0.06550352275371552,0.22791635990142822
1730553668113603800,2.951603759765625,9.807881355285645,-0.05832505226135254,0.22791635990142822
1730553668123631600,2.961631591796875,9.819845199584961,-0.06071787327528,0.2183450609445572
1730553668133655600,2.971655517578125,9.836594581604004,-0.05832505226135254,0.21355941891670227
1730553668143683000,2.98168310546875,9.863214492797852,-0.06819544732570648,0.22552353143692017
1730553668153722400,2.991722412109375,9.853643417358398,-0.05353940650820732,0.2350948303937912
1730553668163751200,3.001751220703125,9.858428955078125,-0.05832505226135254,0.23748764395713806
1730553668173756200,3.011756103515625,9.851250648498535,-0.06071787327528,0.22791635990142822
1730553668183782400,3.021782470703125,9.848857879638672,-0.05593222752213478,0.2231307178735733
1730553668193801700,3.0318017578125,9.851250648498535,-0.05114658549427986,0.23988047242164612
1730553668203827500,3.041827392578125,9.851250648498535,-0.0729810893535614,0.2231307178735733
1730553668213869800,3.051869873046875,9.848857879638672,-0.07058826833963394,0.2063809484243393
1730553668223897000,3.06189697265625,9.858428955078125,-0.05353940650820732,0.2231307178735733
1730553668233940500,3.0719404296875,9.853643417358398,-0.06311069428920746,0.22073788940906525
1730553668243969300,3.08196923828125,9.829416275024414,-0.0729810893535614,0.22552353143692017
1730553668253998600,3.09199853515625,9.831809043884277,-0.07537391036748886,0.23030917346477509
1730553668264027600,3.102027587890625,9.856036186218262,-0.05593222752213478,0.22791635990142822
1730553668274037200,3.112037353515625,9.848857879638672,-0.05353940650820732,0.23030917346477509
1730553668284064300,3.122064208984375,9.858428955078125,-0.06550352275371552,0.22552353143692017
1730553668294105900,3.13210595703125,9.836594581604004,-0.0729810893535614,0.2183450609445572
1730553668304134400,3.142134521484375,9.877572059631348,-0.07058826833963394,0.22791635990142822
1730553668314168000,3.15216796875,9.858428955078125,-0.05832505226135254,0.22791635990142822
1730553668324197000,3.162197021484375,9.853643417358398,-0.0849452018737793,0.2231307178735733
1730553668334222000,3.17222216796875,9.831809043884277,-0.06550352275371552,0.22552353143692017
1730553668344250600,3.182250732421875,9.843772888183594,-0.06311069428920746,0.22073788940906525
1730553668354273800,3.192273681640625,9.851250648498535,-0.0487537607550621,0.2231307178735733
1730553668364302000,3.202302001953125,9.846165657043457,-0.07058826833963394,0.22552353143692017
1730553668374302500,3.212302490234375,9.853643417358398,-0.06311069428920746,0.22073788940906525
1730553668384328000,3.222327880859375,9.851250648498535,-0.0487537607550621,0.21595224738121033
1730553668394390300,3.232390380859375,9.846165657043457,-0.05114658549427986,0.2231307178735733
1730553668404419000,3.242419189453125,9.851250648498535,-0.05832505226135254,0.2231307178735733
1730553668414447900,3.25244775390625,9.863214492797852,-0.06311069428920746,0.23030917346477509
1730553668424477000,3.262476806640625,9.853643417358398,-0.06071787327528,0.21595224738121033
1730553668434498000,3.272498046875,9.846165657043457,-0.05353940650820732,0.21595224738121033
1730553668444526300,3.2825263671875,9.838987350463867,-0.06311069428920746,0.22073788940906525
1730553668454528000,3.292528076171875,9.851250648498535,-0.0729810893535614,0.22791635990142822
1730553668464553500,3.302553466796875,9.851250648498535,-0.06311069428920746,0.2231307178735733
1730553668474607400,3.312607421875,9.843772888183594,-0.07058826833963394,0.22791635990142822
1730553668484635600,3.3226357421875,9.846165657043457,-0.05832505226135254,0.23270200192928314
1730553668494659800,3.332659912109375,9.853643417358398,-0.05832505226135254,0.2183450609445572
1730553668504687900,3.34268798828125,9.84138011932373,-0.06311069428920746,0.21355941891670227
1730553668514718500,3.352718505859375,9.870393753051758,-0.07537391036748886,0.20877377688884735
1730553668524746800,3.362746826171875,9.846165657043457,-0.07537391036748886,0.22552353143692017
1730553668534783700,3.37278369140625,9.865608215332031,-0.06311069428920746,0.22552353143692017
1730553668544812800,3.382812744140625,9.860821723937988,-0.08015955984592438,0.2111666053533554
1730553668554833700,3.392833740234375,9.853643417358398,-0.06311069428920746,0.22552353143692017
1730553668564861700,3.40286181640625,9.856036186218262,-0.06550352275371552,0.21355941891670227
1730553668574885000,3.412885009765625,9.843772888183594,-0.06071787327528,0.21595224738121033
1730553668584913000,3.422912841796875,9.84138011932373,-0.06550352275371552,0.2183450609445572
1730553668594928400,3.432928466796875,9.848857879638672,-0.06071787327528,0.2231307178735733
1730553668604955000,3.442954833984375,9.853643417358398,-0.05593222752213478,0.22791635990142822
1730553668614980400,3.45298046875,9.822237968444824,-0.0729810893535614,0.22073788940906525
1730553668625006800,3.4630068359375,9.846165657043457,-0.0729810893535614,0.22073788940906525
1730553668635047400,3.47304736328125,9.846165657043457,-0.046360939741134644,0.21595224738121033
1730553668645075500,3.483075439453125,9.83420181274414,-0.05353940650820732,0.2183450609445572
1730553668655098600,3.4930986328125,9.858428955078125,-0.07776673883199692,0.22552353143692017
1730553668665126100,3.503126220703125,9.846165657043457,-0.07776673883199692,0.2231307178735733
1730553668675155000,3.513155029296875,9.846165657043457,-0.06311069428920746,0.23030917346477509
1730553668685182500,3.523182373046875,9.836594581604004,-0.05353940650820732,0.2111666053533554
1730553668695215000,3.533215087890625,9.848857879638672,-0.05832505226135254,0.2350948303937912
1730553668705243100,3.5432431640625,9.831809043884277,-0.05593222752213478,0.2231307178735733
1730553668715305200,3.55330517578125,9.848857879638672,-0.0729810893535614,0.21595224738121033
1730553668725336600,3.563336669921875,9.838987350463867,-0.07058826833963394,0.21355941891670227
1730553668735322600,3.573322509765625,9.853643417358398,-0.06311069428920746,0.2231307178735733
1730553668745349400,3.583349365234375,9.84138011932373,-0.06311069428920746,0.23270200192928314
1730553668755381000,3.593381103515625,9.853643417358398,-0.07537391036748886,0.2231307178735733
1730553668765408300,3.603408203125,9.853643417358398,-0.05832505226135254,0.22552353143692017
1730553668775436500,3.6134365234375,9.848857879638672,-0.06071787327528,0.21595224738121033
1730553668785464000,3.623464111328125,9.83420181274414,-0.05353940650820732,0.2350948303937912
1730553668795485200,3.633485107421875,9.848857879638672,-0.05832505226135254,0.22791635990142822
1730553668805512000,3.643511962890625,9.838987350463867,-0.07058826833963394,0.22073788940906525
1730553668815544300,3.65354443359375,9.843772888183594,-0.07058826833963394,0.2231307178735733
1730553668825571800,3.66357177734375,9.856036186218262,-0.05114658549427986,0.21595224738121033
1730553668835602000,3.673601806640625,9.865608215332031,-0.05832505226135254,0.2111666053533554
1730553668845629700,3.683629638671875,9.851250648498535,-0.06819544732570648,0.21595224738121033
1730553668855671300,3.69367138671875,9.856036186218262,-0.05832505226135254,0.2231307178735733
1730553668865700400,3.703700439453125,9.846165657043457,-0.07058826833963394,0.22552353143692017
1730553668875726000,3.71372607421875,9.843772888183594,-0.05353940650820732,0.2231307178735733
1730553668885755000,3.7237548828125,9.856036186218262,-0.06550352275371552,0.2350948303937912
1730553668895755000,3.733755126953125,9.843772888183594,-0.05593222752213478,0.22791635990142822
1730553668905781000,3.743781005859375,9.838987350463867,-0.06071787327528,0.22552353143692017
1730553668915833900,3.753833740234375,9.838987350463867,-0.05832505226135254,0.22552353143692017
1730553668925862400,3.7638623046875,9.856036186218262,-0.05832505226135254,0.22791635990142822
1730553668935892700,3.773892822265625,9.856036186218262,-0.05353940650820732,0.22791635990142822
1730553668945921500,3.783921630859375,9.858428955078125,-0.0729810893535614,0.21595224738121033
1730553668955950600,3.79395068359375,9.853643417358398,-0.06311069428920746,0.23270200192928314
1730553668965979100,3.803979248046875,9.848857879638672,-0.06311069428920746,0.2183450609445572
1730553668975984000,3.813984130859375,9.84138011932373,-0.07537391036748886,0.22552353143692017
1730553668986010400,3.82401025390625,9.846165657043457,-0.08015955984592438,0.22791635990142822
1730553668996056600,3.834056640625,9.84138011932373,-0.06819544732570648,0.2231307178735733
1730553669006084900,3.8440849609375,9.83420181274414,-0.05832505226135254,0.21355941891670227
1730553669016116200,3.8541162109375,9.851250648498535,-0.05114658549427986,0.2231307178735733
1730553669026145000,3.86414501953125,9.848857879638672,-0.07058826833963394,0.22791635990142822
1730553669036179700,3.8741796875,9.856036186218262,-0.07537391036748886,0.22791635990142822
1730553669046209000,3.884208984375,9.846165657043457,-0.06071787327528,0.22552353143692017
1730553669056226000,3.89422607421875,9.843772888183594,-0.05593222752213478,0.21595224738121033
1730553669066254000,3.904254150390625,9.838987350463867,-0.05832505226135254,0.22791635990142822
1730553669076287200,3.914287353515625,9.846165657043457,-0.05832505226135254,0.2350948303937912
1730553669086315800,3.924315673828125,9.851250648498535,-0.06550352275371552,0.22791635990142822
1730553669096343000,3.934343017578125,9.856036186218262,-0.06819544732570648,0.21355941891670227
1730553669106371600,3.94437158203125,9.860821723937988,-0.06311069428920746,0.22073788940906525
1730553669116398300,3.9543984375,9.858428955078125,-0.06550352275371552,0.22552353143692017
1730553669126426400,3.96442626953125,9.846165657043457,-0.0487537607550621,0.2231307178735733
1730553669136476000,3.974475830078125,9.824630737304688,-0.06550352275371552,0.22552353143692017
1730553669146506200,3.98450634765625,9.843772888183594,-0.06819544732570648,0.2231307178735733
1730553669156489200,3.9944892578125,9.848857879638672,-0.06311069428920746,0.2231307178735733
1730553669166515000,4.004514892578125,9.846165657043457,-0.046360939741134644,0.22791635990142822
1730553669176563500,4.0145634765625,9.851250648498535,-0.05353940650820732,0.22791635990142822
1730553669186591200,4.02459130859375,9.836594581604004,-0.06550352275371552,0.23270200192928314
1730553669196626000,4.0346259765625,9.836594581604004,-0.06819544732570648,0.2183450609445572
1730553669206654500,4.044654541015625,9.843772888183594,-0.07058826833963394,0.2183450609445572
1730553669216683500,4.05468359375,9.843772888183594,-0.06311069428920746,0.2183450609445572
1730553669226712300,4.06471240234375,9.848857879638672,-0.05114658549427986,0.21355941891670227
1730553669236732000,4.07473193359375,9.838987350463867,-0.07058826833963394,0.2183450609445572
1730553669246759700,4.084759765625,9.853643417358398,-0.06071787327528,0.22552353143692017
1730553669256792000,4.0947919921875,9.863214492797852,-0.041575293987989426,0.22791635990142822
1730553669266820400,4.1048203125,9.829416275024414,-0.0729810893535614,0.22073788940906525
1730553669276853500,4.114853515625,9.843772888183594,-0.0849452018737793,0.23030917346477509
1730553669286882300,4.12488232421875,9.846165657043457,-0.06819544732570648,0.2231307178735733
1730553669296912400,4.134912353515625,9.83420181274414,-0.06071787327528,0.24227328598499298
1730553669306941200,4.144941162109375,9.831809043884277,-0.03918246924877167,0.22552353143692017
1730553669316949500,4.154949462890625,9.831809043884277,-0.02961117960512638,0.22073788940906525
1730553669326976300,4.164976318359375,9.84138011932373,-0.06819544732570648,0.20877377688884735
1730553669337002200,4.175002197265625,9.838987350463867,-0.07537391036748886,0.2063809484243393
1730553669347029000,4.185029052734375,9.836594581604004,-0.0729810893535614,0.22791635990142822
1730553669357059000,4.19505908203125,9.843772888183594,-0.06819544732570648,0.23270200192928314
1730553669367086000,4.205086181640625,9.843772888183594,-0.07058826833963394,0.22552353143692017
1730553669377113300,4.21511328125,9.836594581604004,-0.07776673883199692,0.22791635990142822
1730553669387140400,4.225140380859375,9.838987350463867,-0.05832505226135254,0.22073788940906525
1730553669397195300,4.2351953125,9.843772888183594,-0.05832505226135254,0.22552353143692017
1730553669407225000,4.24522509765625,9.856036186218262,-0.06311069428920746,0.22073788940906525
1730553669417201000,4.255200927734375,9.848857879638672,-0.07537391036748886,0.2183450609445572
1730553669427225300,4.265225341796875,9.843772888183594,-0.06819544732570648,0.21355941891670227
1730553669437286100,4.2752861328125,9.836594581604004,-0.05832505226135254,0.21595224738121033
1730553669447314200,4.285314208984375,9.83420181274414,-0.0729810893535614,0.21595224738121033
1730553669457334800,4.295334716796875,9.831809043884277,-0.05832505226135254,0.22791635990142822
1730553669467362300,4.3053623046875,9.851250648498535,-0.06311069428920746,0.2231307178735733
1730553669477391600,4.3153916015625,9.863214492797852,-0.07058826833963394,0.22073788940906525
1730553669487419400,4.32541943359375,9.860821723937988,-0.07058826833963394,0.22552353143692017
1730553669497426200,4.33542626953125,9.84138011932373,-0.06071787327528,0.23270200192928314
1730553669507451600,4.34545166015625,9.848857879638672,-0.07537391036748886,0.2350948303937912
1730553669517514800,4.3555146484375,9.843772888183594,-0.05353940650820732,0.22552353143692017
1730553669527544000,4.3655439453125,9.836594581604004,-0.07776673883199692,0.2231307178735733
1730553669537569800,4.37556982421875,9.846165657043457,-0.06071787327528,0.2231307178735733
1730553669547598800,4.385598876953125,9.848857879638672,-0.0729810893535614,0.22073788940906525
1730553669557634600,4.395634521484375,9.846165657043457,-0.08973085135221481,0.22791635990142822
1730553669567664400,4.405664306640625,9.858428955078125,-0.07537391036748886,0.2231307178735733
1730553669577686800,4.415686767578125,9.848857879638672,-0.06819544732570648,0.21355941891670227
1730553669587715800,4.4257158203125,9.848857879638672,-0.0487537607550621,0.2231307178735733
1730553669597720600,4.435720458984375,9.82702350616455,-0.05832505226135254,0.23270200192928314
1730553669607747000,4.4457470703125,9.846165657043457,-0.08255238085985184,0.23988047242164612
1730553669617807000,4.45580712890625,9.848857879638672,-0.06550352275371552,0.24466611444950104
1730553669627837000,4.4658369140625,9.848857879638672,-0.06311069428920746,0.2231307178735733
1730553669637853400,4.475853515625,9.831809043884277,-0.07537391036748886,0.21595224738121033
1730553669647881700,4.4858818359375,9.846165657043457,-0.07776673883199692,0.2231307178735733
1730553669657907500,4.495907470703125,9.858428955078125,-0.06819544732570648,0.2231307178735733
1730553669667935500,4.505935546875,9.838987350463867,-0.07058826833963394,0.21595224738121033
1730553669677923300,4.51592333984375,9.846165657043457,-0.06819544732570648,0.2183450609445572
1730553669687947500,4.525947509765625,9.848857879638672,-0.05593222752213478,0.2350948303937912
1730553669698023000,4.53602294921875,9.853643417358398,-0.046360939741134644,0.23270200192928314
1730553669708052200,4.54605224609375,9.848857879638672,-0.05114658549427986,0.2231307178735733
1730553669718083000,4.5560830078125,9.83420181274414,-0.06819544732570648,0.2111666053533554
1730553669728112600,4.566112548828125,9.860821723937988,-0.0487537607550621,0.23988047242164612
1730553669738136800,4.57613671875,9.853643417358398,-0.0487537607550621,0.22791635990142822
1730553669748166000,4.586165771484375,9.836594581604004,-0.0729810893535614,0.22791635990142822
1730553669758187800,4.596187744140625,9.856036186218262,-0.06071787327528,0.2231307178735733
1730553669768216000,4.606216064453125,9.853643417358398,-0.07776673883199692,0.2183450609445572
1730553669778253000,4.616253173828125,9.851250648498535,-0.07058826833963394,0.23030917346477509
1730553669788282000,4.6262822265625,9.848857879638672,-0.06311069428920746,0.23988047242164612
1730553669798313500,4.6363134765625,9.860821723937988,-0.046360939741134644,0.23748764395713806
1730553669808342800,4.6463427734375,9.838987350463867,-0.05353940650820732,0.23030917346477509
1730553669818365200,4.656365234375,9.843772888183594,-0.05593222752213478,0.21355941891670227
1730553669828393700,4.666393798828125,9.856036186218262,-0.06819544732570648,0.21595224738121033
1730553669838417000,4.6764169921875,9.83420181274414,-0.06071787327528,0.2111666053533554
1730553669848445000,4.68644482421875,9.856036186218262,-0.06311069428920746,0.2111666053533554
1730553669858444800,4.69644482421875,9.848857879638672,-0.05593222752213478,0.20877377688884735
1730553669868470000,4.706469970703125,9.846165657043457,-0.07776673883199692,0.23030917346477509
1730553669878540300,4.716540283203125,9.853643417358398,-0.06550352275371552,0.22791635990142822
1730553669888570000,4.726570068359375,9.84138011932373,-0.05353940650820732,0.22073788940906525
1730553669898578200,4.736578125,9.846165657043457,-0.06071787327528,0.2231307178735733
1730553669908605700,4.746605712890625,9.82702350616455,-0.06819544732570648,0.22073788940906525
1730553669918640600,4.756640625,9.856036186218262,-0.05114658549427986,0.22791635990142822
1730553669928669000,4.7666689453125,9.860821723937988,-0.05353940650820732,0.23270200192928314
1730553669938696400,4.776696533203125,9.838987350463867,-0.08015955984592438,0.2350948303937912
1730553669948724500,4.786724365234375,9.83420181274414,-0.046360939741134644,0.2183450609445572
1730553669958750500,4.79675048828125,9.848857879638672,-0.06819544732570648,0.21355941891670227
1730553669968778500,4.806778564453125,9.848857879638672,-0.0729810893535614,0.21595224738121033
1730553669978801400,4.816801513671875,9.836594581604004,-0.06550352275371552,0.22073788940906525
1730553669988829000,4.826828857421875,9.856036186218262,-0.06819544732570648,0.21355941891670227
1730553669998858000,4.83685791015625,9.84138011932373,-0.05593222752213478,0.2183450609445572
1730553670008885800,4.8468857421875,9.838987350463867,-0.07776673883199692,0.23748764395713806
1730553670018923000,4.856923095703125,9.831809043884277,-0.06550352275371552,0.23030917346477509
1730553670028951800,4.866951904296875,9.829416275024414,-0.06819544732570648,0.2183450609445572
1730553670038975700,4.876975830078125,9.83420181274414,-0.05353940650820732,0.22073788940906525
1730553670049003800,4.887003662109375,9.83420181274414,-0.05353940650820732,0.2183450609445572
1730553670059029200,4.897029296875,9.838987350463867,-0.05353940650820732,0.22791635990142822
1730553670069057000,4.90705712890625,9.846165657043457,-0.05593222752213478,0.2231307178735733
1730553670079081500,4.91708154296875,9.846165657043457,-0.05832505226135254,0.2350948303937912
1730553670089109000,4.92710888671875,9.846165657043457,-0.06071787327528,0.2231307178735733
1730553670099123700,4.937123779296875,9.846165657043457,-0.06071787327528,0.22791635990142822
1730553670109150000,4.94714990234375,9.836594581604004,-0.07776673883199692,0.2231307178735733
1730553670119176000,4.957176025390625,9.83420181274414,-0.07058826833963394,0.22791635990142822
1730553670129202000,4.967201904296875,9.83420181274414,-0.0729810893535614,0.2183450609445572
1730553670139256600,4.977256591796875,9.829416275024414,-0.07058826833963394,0.2231307178735733
1730553670149285600,4.98728564453125,9.843772888183594,-0.07058826833963394,0.2183450609445572
1730553670159306800,4.997306640625,9.853643417358398,-0.06311069428920746,0.2183450609445572
1730553670169335000,5.0073349609375,9.860821723937988,-0.06819544732570648,0.23030917346477509
1730553670179362300,5.0173623046875,9.848857879638672,-0.05832505226135254,0.23748764395713806
1730553670189390300,5.027390380859375,9.853643417358398,-0.06550352275371552,0.22791635990142822
1730553670199424000,5.037424072265625,9.848857879638672,-0.0487537607550621,0.22552353143692017
1730553670209452800,5.047452880859375,9.853643417358398,-0.05353940650820732,0.2231307178735733
1730553670219483000,5.05748291015625,9.848857879638672,-0.06311069428920746,0.21595224738121033
1730553670229511700,5.06751171875,9.848857879638672,-0.03678964823484421,0.22073788940906525
1730553670239529200,5.077529296875,9.836594581604004,-0.05832505226135254,0.2350948303937912
1730553670249556700,5.087556640625,9.84138011932373,-0.05593222752213478,0.23030917346477509
1730553670259570700,5.09757080078125,9.829416275024414,-0.0487537607550621,0.2111666053533554
1730553670269597000,5.107596923828125,9.836594581604004,-0.046360939741134644,0.2063809484243393
1730553670279643100,5.11764306640625,9.838987350463867,-0.041575293987989426,0.2231307178735733
1730553670289671400,5.12767138671875,9.853643417358398,-0.03678964823484421,0.22791635990142822
1730553670299697700,5.13769775390625,9.853643417358398,-0.0487537607550621,0.22552353143692017
1730553670309725700,5.1477255859375,9.860821723937988,-0.041575293987989426,0.24227328598499298
1730553670319758800,5.1577587890625,9.846165657043457,-0.043968115001916885,0.2638086974620819
1730553670329787400,5.167787353515625,9.848857879638672,-0.06311069428920746,0.26141586899757385
1730553670339786800,5.177786865234375,9.843772888183594,-0.0849452018737793,0.26141586899757385
1730553670349812500,5.1878125,9.831809043884277,-0.09930214285850525,0.24466611444950104
1730553670359863300,5.19786328125,9.848857879638672,-0.11126625537872314,0.21595224738121033
1730553670369891300,5.207891357421875,9.838987350463867,-0.10408778488636017,0.1941177397966385
1730553670379895000,5.21789501953125,9.838987350463867,-0.0849452018737793,0.17497515678405762
1730553670389920800,5.227920654296875,9.851250648498535,-0.05832505226135254,0.1534397453069687
1730553670399978800,5.237978759765625,9.865608215332031,-0.03918246924877167,0.1462612897157669
1730553670410007600,5.248007568359375,9.843772888183594,-0.022432712838053703,0.18454644083976746
1730553670420036000,5.2580361328125,9.848857879638672,-0.020039889961481094,0.20159530639648438
1730553670430065200,5.268065185546875,9.843772888183594,-0.017647067084908485,0.24227328598499298
1730553670440071700,5.27807177734375,9.853643417358398,-0.02961117960512638,0.26620152592658997
1730553670450098400,5.288098388671875,9.83420181274414,-0.07537391036748886,0.2757728099822998
1730553670460129000,5.29812890625,9.846165657043457,-0.08973085135221481,0.27816563844680786
1730553670470156000,5.308156005859375,9.851250648498535,-0.10887342691421509,0.2638086974620819
1730553670480207400,5.318207275390625,9.822237968444824,-0.10887342691421509,0.2470589429140091
1730553670490236700,5.328236572265625,9.846165657043457,-0.11126625537872314,0.22552353143692017
1730553670500253700,5.338253662109375,9.858428955078125,-0.09690931439399719,0.2183450609445572
1730553670510282000,5.348281982421875,9.846165657043457,-0.0849452018737793,0.19172491133213043
1730553670520310500,5.358310546875,9.848857879638672,-0.05353940650820732,0.1941177397966385
1730553670530338800,5.3683388671875,9.860821723937988,-0.024825535714626312,0.1989033818244934
1730553670540358100,5.378358154296875,9.838987350463867,-0.041575293987989426,0.19172491133213043
1730553670550385700,5.3883857421875,9.848857879638672,-0.03918246924877167,0.21595224738121033
1730553670560386800,5.39838671875,9.831809043884277,-0.06550352275371552,0.2231307178735733
1730553670570411500,5.40841162109375,9.846165657043457,-0.046360939741134644,0.23988047242164612
1730553670580465200,5.418465087890625,9.851250648498535,-0.0849452018737793,0.22552353143692017
1730553670590492700,5.42849267578125,9.848857879638672,-0.10648060590028763,0.2350948303937912
1730553670600511000,5.438510986328125,9.865608215332031,-0.08973085135221481,0.2350948303937912
1730553670610537700,5.448537841796875,9.83420181274414,-0.10169496387243271,0.22552353143692017
1730553670620601600,5.4586015625,9.843772888183594,-0.0849452018737793,0.22073788940906525
1730553670630632000,5.4686318359375,9.846165657043457,-0.08973085135221481,0.23270200192928314
1730553670640636700,5.47863671875,9.83420181274414,-0.07058826833963394,0.22073788940906525
1730553670650664700,5.488664794921875,9.843772888183594,-0.05114658549427986,0.21595224738121033
1730553670660698000,5.498697998046875,9.851250648498535,-0.03918246924877167,0.22073788940906525
1730553670670726700,5.5087265625,9.860821723937988,-0.022432712838053703,0.2183450609445572
1730553670680742700,5.51874267578125,9.843772888183594,-0.03918246924877167,0.22552353143692017
1730553670690770000,5.52877001953125,9.836594581604004,-0.05593222752213478,0.22073788940906525
1730553670700798500,5.538798583984375,9.848857879638672,-0.06550352275371552,0.22073788940906525
1730553670710825700,5.54882568359375,9.819845199584961,-0.07058826833963394,0.23030917346477509
1730553670720854500,5.5588544921875,9.824630737304688,-0.09212367236614227,0.22791635990142822
1730553670730882000,5.568882080078125,9.863214492797852,-0.05832505226135254,0.22791635990142822
1730553670740893200,5.57889306640625,9.851250648498535,-0.0729810893535614,0.2231307178735733
1730553670750919200,5.588919189453125,9.824630737304688,-0.06071787327528,0.22073788940906525
1730553670760945000,5.59894482421875,9.843772888183594,-0.06311069428920746,0.22552353143692017
1730553670770989600,5.608989501953125,9.82702350616455,-0.07058826833963394,0.2183450609445572
1730553670781016800,5.619016845703125,9.831809043884277,-0.06819544732570648,0.22552353143692017
1730553670791055600,5.6290556640625,9.843772888183594,-0.07058826833963394,0.23030917346477509
1730553670801084200,5.639084228515625,9.843772888183594,-0.06071787327528,0.2231307178735733
1730553670811111200,5.649111083984375,9.843772888183594,-0.06819544732570648,0.2183450609445572
1730553670821139200,5.65913916015625,9.836594581604004,-0.07058826833963394,0.23270200192928314
1730553670831188000,5.66918798828125,9.848857879638672,-0.07058826833963394,0.2350948303937912
1730553670841218000,5.679218017578125,9.843772888183594,-0.05832505226135254,0.23270200192928314
1730553670851224800,5.689224853515625,9.856036186218262,-0.06819544732570648,0.2231307178735733
1730553670861252600,5.699252685546875,9.843772888183594,-0.07537391036748886,0.23270200192928314
1730553670871271400,5.709271484375,9.843772888183594,-0.06819544732570648,0.22073788940906525
1730553670881298400,5.71929833984375,9.83420181274414,-0.05832505226135254,0.2231307178735733
1730553670891326000,5.729325927734375,9.831809043884277,-0.05593222752213478,0.2231307178735733
1730553670901353000,5.73935302734375,9.824630737304688,-0.05353940650820732,0.2063809484243393
1730553670911392500,5.749392578125,9.836594581604004,-0.06071787327528,0.2111666053533554
1730553670921420800,5.7594208984375,9.822237968444824,-0.05114658549427986,0.2183450609445572
1730553670931446000,5.769446044921875,9.843772888183594,-0.05593222752213478,0.2111666053533554
1730553670941474000,5.77947412109375,9.843772888183594,-0.06071787327528,0.22791635990142822
1730553670951500800,5.789500732421875,9.848857879638672,-0.05353940650820732,0.23270200192928314
1730553670961528800,5.79952880859375,9.838987350463867,-0.06819544732570648,0.23270200192928314
1730553670971546000,5.809546142578125,9.831809043884277,-0.07537391036748886,0.24227328598499298
1730553670981572900,5.81957275390625,9.843772888183594,-0.07537391036748886,0.23270200192928314
1730553670991615000,5.829614990234375,9.846165657043457,-0.05832505226135254,0.23030917346477509
1730553671001643300,5.839643310546875,9.83420181274414,-0.05832505226135254,0.23030917346477509
1730553671011668500,5.84966845703125,9.836594581604004,-0.05593222752213478,0.22073788940906525
1730553671021696500,5.859696533203125,9.829416275024414,-0.06819544732570648,0.2183450609445572
1730553671031736800,5.86973681640625,9.863214492797852,-0.041575293987989426,0.23748764395713806
1730553671041766100,5.87976611328125,9.858428955078125,-0.0487537607550621,0.2231307178735733
1730553671051788500,5.88978857421875,9.853643417358398,-0.0729810893535614,0.20159530639648438
1730553671061817000,5.899817138671875,9.848857879638672,-0.09930214285850525,0.1989033818244934
1730553671071911400,5.909911376953125,9.84138011932373,-0.09451649338006973,0.20159530639648438
1730553671081946600,5.919946533203125,9.83420181274414,-0.08255238085985184,0.20159530639648438
1730553671091906000,5.929906005859375,9.83420181274414,-0.05832505226135254,0.2231307178735733
1730553671101933600,5.93993359375,9.846165657043457,-0.06311069428920746,0.23270200192928314
1730553671111963100,5.949963134765625,9.856036186218262,-0.06819544732570648,0.22791635990142822
1730553671121991000,5.959990966796875,9.84138011932373,-0.06311069428920746,0.2350948303937912
1730553671132018200,5.97001806640625,9.851250648498535,-0.06311069428920746,0.23988047242164612
1730553671142046000,5.9800458984375,9.848857879638672,-0.07058826833963394,0.2231307178735733
1730553671152076300,5.990076171875,9.838987350463867,-0.05832505226135254,0.2231307178735733
1730553671162104300,6.000104248046875,9.836594581604004,-0.05593222752213478,0.20877377688884735
1730553671172090000,6.010090087890625,9.831809043884277,-0.05593222752213478,0.20398813486099243
1730553671182113800,6.02011376953125,9.860821723937988,-0.06311069428920746,0.2111666053533554
1730553671192182800,6.030182861328125,9.860821723937988,-0.06819544732570648,0.2231307178735733
1730553671202211000,6.040211181640625,9.843772888183594,-0.05832505226135254,0.21595224738121033
1730553671212248000,6.050248046875,9.82702350616455,-0.05593222752213478,0.23030917346477509
1730553671222277000,6.060277099609375,9.831809043884277,-0.06550352275371552,0.2350948303937912
1730553671232297200,6.070297119140625,9.863214492797852,-0.0729810893535614,0.23030917346477509
1730553671242325500,6.080325439453125,9.865608215332031,-0.09451649338006973,0.21595224738121033
1730553671252350000,6.090349853515625,9.846165657043457,-0.08015955984592438,0.22073788940906525
1730553671262378000,6.1003779296875,9.856036186218262,-0.10169496387243271,0.20877377688884735
1730553671272415000,6.1104150390625,9.831809043884277,-0.08973085135221481,0.20159530639648438
1730553671282443800,6.12044384765625,9.83420181274414,-0.0729810893535614,0.2111666053533554
1730553671292468700,6.13046875,9.851250648498535,-0.05353940650820732,0.20877377688884735
1730553671302497000,6.1404970703125,9.868000984191895,-0.043968115001916885,0.19172491133213043
1730553671312520400,6.1505205078125,9.856036186218262,-0.041575293987989426,0.2638086974620819
1730553671322548500,6.160548583984375,9.812666893005371,-0.024825535714626312,0.2350948303937912
1730553671332580400,6.170580322265625,9.838987350463867,-0.017647067084908485,0.251844584941864
1730553671342608600,6.180608642578125,9.851250648498535,-0.024825535714626312,0.2350948303937912
1730553671352640000,6.190639892578125,9.853643417358398,-0.06311069428920746,0.22791635990142822
1730553671362668500,6.20066845703125,9.851250648498535,-0.09451649338006973,0.2063809484243393
1730553671372666000,6.210666015625,9.846165657043457,-0.1423729509115219,0.2063809484243393
1730553671382691600,6.220691650390625,9.870393753051758,-0.1495514214038849,0.2183450609445572
1730553671392741600,6.23074169921875,9.831809043884277,-0.12083754688501358,0.1869392693042755
1730553671402769700,6.240769775390625,9.903892517089844,-0.137587308883667,0.22073788940906525
1730553671412797200,6.250797119140625,9.860821723937988,-0.08015955984592438,0.2183450609445572
1730553671422825200,6.2608251953125,9.884750366210938,-0.06071787327528,0.2350948303937912
1730553671432834800,6.270834716796875,9.805487632751465,-0.027218356728553772,0.2829512655735016
1730553671442861000,6.280861083984375,9.82702350616455,-0.0032901312224566936,0.2925225794315338
1730553671452913200,6.2909130859375,9.829416275024414,-0.03678964823484421,0.2566302418708801
1730553671462942000,6.30094189453125,9.89432144165039,-0.024825535714626312,0.09840483218431473
1730553671472959500,6.31095947265625,9.920642852783203,0.03738785535097122,-0.490827739238739
1730553671482987000,6.320987060546875,9.980463027954102,-0.03200400248169899,-0.9891330599784851
1730553671493015800,6.331015869140625,9.896714210510254,-0.21176479756832123,-0.39032918214797974
1730553671503043300,6.341043212890625,9.831809043884277,-0.22372891008853912,0.7525427341461182
1730553671513070800,6.35107080078125,9.74806022644043,-0.3170489966869354,1.3106685876846313
1730553671523061200,6.361061279296875,9.846165657043457,-0.3364906907081604,0.8913264274597168
1730553671533086200,6.371086181640625,9.865608215332031,-0.19980068504810333,0.1175474151968956
1730553671543166200,6.381166259765625,9.817452430725098,-0.12801600992679596,-0.23449662327766418
1730553671553196500,6.391196533203125,9.819845199584961,-0.21655045449733734,-0.06699903309345245
1730553671563227400,6.401227294921875,9.831809043884277,-0.32183465361595154,0.3355933725833893
1730553671573257700,6.4112578125,9.836594581604004,-0.384347140789032,0.9631111025810242
1730553671583271000,6.42127099609375,9.884750366210938,-0.353240430355072,1.2074781656265259
1730553671593318100,6.431318115234375,9.795916557312012,-0.2907279431819916,0.9583254456520081
1730553671603326500,6.441326416015625,9.728918075561523,-0.16151553392410278,0.39541393518447876
1730553671613356800,6.451356689453125,9.848857879638672,-0.3242274820804596,0.3284149169921875
1730553671623387100,6.46138720703125,9.9469633102417,-0.22133609652519226,0.4169493317604065
1730553671633416000,6.471416015625,9.870393753051758,-0.22851456701755524,0.2757728099822998
1730553671643446300,6.4814462890625,9.764810562133789,-0.36999019980430603,0.1941177397966385
1730553671653476600,6.4914765625,9.856036186218262,-0.4226323068141937,0.2470589429140091
1730553671663507000,6.5015068359375,9.838987350463867,-0.2907279431819916,0.3332005441188812
1730553671673524500,6.5115244140625,9.889535903930664,-0.36999019980430603,0.3595215976238251
1730553671683553500,6.521553466796875,9.822237968444824,-0.3771686553955078,0.3044866919517517
1730553671693560300,6.531560302734375,9.769596099853516,-0.39152559638023376,0.33080771565437317
1730553671703587000,6.541587158203125,9.800702095031738,-0.39870408177375793,0.43130627274513245
1730553671713650200,6.551650146484375,9.815059661865234,-0.3074777126312256,0.38344982266426086
1730553671723680500,6.561680419921875,9.89432144165039,-0.3412763178348541,0.18454644083976746
1730553671733701600,6.57170166015625,9.872786521911621,-0.5207380056381226,0.05054837837815285
1730553671743731200,6.581731201171875,9.858428955078125,-0.6909275650978088,-0.14356936514377594
1730553671753749800,6.591749755859375,9.786345481872559,-0.664606511592865,-0.42382872104644775
1730553671763778000,6.601778076171875,9.764810562133789,-0.4417748749256134,-0.5267201066017151
1730553671773793300,6.611793212890625,9.913464546203613,-0.2955136001110077,-0.26081767678260803
1730553671783820300,6.6218203125,9.8871431350708,-0.36281174421310425,0.1869392693042755
1730553671793867000,6.631866943359375,9.882357597351074,-0.18065811693668365,0.620638370513916
1730553671803896000,6.64189599609375,9.942177772521973,0.04935196787118912,0.7692924737930298
1730553671813919200,6.651919189453125,9.956535339355469,0.16899310052394867,0.7980063557624817
1730553671823947500,6.661947509765625,9.903892517089844,-0.03439682722091675,0.6589235067367554
1730553671833979100,6.671979248046875,9.728918075561523,-0.46331027150154114,0.5656034350395203
1730553671844007700,6.682007568359375,9.642776489257812,-0.4704887568950653,0.4504488706588745
1730553671854028800,6.69202880859375,9.590133666992188,-0.3314059376716614,0.2063809484243393
1730553671864056800,6.702056884765625,9.908679008483887,-0.2021935135126114,-0.13639089465141296
1730553671874070000,6.712070068359375,10.05703353881836,-0.2189432680606842,0.08404789865016937
1730553671884096500,6.722096435546875,10.01874828338623,-0.3026920557022095,0.17258232831954956
1730553671894142200,6.73214208984375,10.136296272277832,-0.35084763169288635,0.09361918270587921
1730553671904170500,6.74217041015625,10.085747718811035,-0.5231308341026306,0.2949153780937195
1730553671914199000,6.752198974609375,10.076175689697266,-0.7459624409675598,0.4914259612560272
1730553671924227300,6.762227294921875,10.129117012023926,-0.6095715761184692,0.654137909412384
1730553671934244400,6.772244384765625,10.165009498596191,-0.367597371339798,0.5129613280296326
1730553671944272000,6.78227197265625,10.222437858581543,-0.2021935135126114,0.024227328598499298
1730553671954286000,6.7922861328125,10.322936058044434,-0.2835494875907898,-0.4453641176223755
1730553671964312000,6.80231201171875,10.40219783782959,-0.48723849654197693,-0.7758727669715881
1730553671974353400,6.812353515625,10.462018966674805,-0.6382854580879211,-0.7567301392555237
1730553671984381000,6.822380859375,10.30618667602539,-0.6933203339576721,-0.39990049600601196
1730553671994423300,6.83242333984375,9.951749801635742,-0.594915509223938,-0.21774685382843018
1730553672004452400,6.842452392578125,9.822237968444824,-0.3002992272377014,-0.17706887423992157
1730553672014476000,6.85247607421875,9.942177772521973,0.04695914313197136,-0.09092725813388824
1730553672024504300,6.86250439453125,10.013962745666504,0.28654050827026367,0.09122636169195175
1730553672034524200,6.872524169921875,10.375577926635742,0.18813568353652954,0.13668999075889587
1730553672044551700,6.8825517578125,10.692028999328613,-0.15912270545959473,-0.0933200865983963
1730553672054584800,6.892584716796875,10.684850692749023,-0.5853442549705505,-0.1986042857170105
1730553672064613000,6.902613037109375,10.493125915527344,-0.8129615187644958,-0.011665010824799538
1730553672074633000,6.912633056640625,10.198509216308594,-0.722034215927124,-0.2512463629245758
1730553672084660500,6.922660400390625,9.970891952514648,-0.6047859191894531,-0.5913262963294983
1730553672094691000,6.932691162109375,9.903892517089844,-0.3290131092071533,-0.8117650747299194
1730553672104718800,6.94271875,9.795916557312012,-0.05832505226135254,-0.8213363885879517
1730553672114753500,6.95275341796875,9.846165657043457,0.03738785535097122,-0.7902296781539917
1730553672124781800,6.96278173828125,10.270294189453125,-0.012861421331763268,-0.7806583642959595
1730553672134775600,6.972775634765625,10.648658752441406,-0.017647067084908485,-0.5841478109359741
1730553672144800500,6.982800537109375,10.98185920715332,0.12352947145700455,-0.18903298676013947
1730553672154854100,6.992854248046875,11.496914863586426,0.1785643845796585,0.13908281922340393
1730553672164882000,7.0028818359375,12.000005722045898,-0.012861421331763268,0.24466611444950104
1730553672174914000,7.0129140625,12.337692260742188,-0.36999019980430603,0.04336991161108017
1730553672184942000,7.022942138671875,12.411870002746582,-0.35802608728408813,-0.16271193325519562
1730553672194934800,7.032934814453125,12.368799209594727,-0.42741793394088745,-0.41904306411743164
1730553672204959500,7.04295947265625,12.090932846069336,-0.7603194117546082,-0.7399803996086121
1730553672215025000,7.05302490234375,11.741281509399414,-0.7674978375434875,-1.0657033920288086
1730553672225053400,7.063053466796875,11.47537899017334,-0.5853442549705505,-1.3962119817733765
1730553672235095000,7.073094970703125,11.367403030395508,-0.5542375445365906,-1.578365683555603
1730553672245124900,7.083124755859375,11.331510543823242,-0.633499801158905,-1.4515460729599
1730553672255142100,7.09314208984375,11.300403594970703,-0.6382854580879211,-1.3770694732666016
1730553672265170700,7.103170654296875,11.252547264099121,-0.489631325006485,-1.5927225351333618
1730553672275210800,7.113210693359375,11.252547264099121,-0.5542375445365906,-1.82273268699646
1730553672285240600,7.123240478515625,11.089536666870117,-0.7986045479774475,-1.937588095664978
1730553672295292200,7.133292236328125,10.81406307220459,-1.0310074090957642,-2.205883264541626
1730553672305324000,7.143323974609375,10.529017448425293,-1.2131611108779907,-2.584547519683838
1730553672315320600,7.153320556640625,10.282258033752441,-1.0166505575180054,-2.7978079319000244
1730553672325349000,7.16334912109375,9.973284721374512,-0.8656035661697388,-2.754737138748169
1730553672335376600,7.173376708984375,9.769596099853516,-1.1629117727279663,-2.4430718421936035
1730553672345405000,7.183405029296875,9.494122505187988,-1.3040883541107178,-1.8681962490081787
1730553672355428600,7.1934287109375,9.034101486206055,-0.8344969153404236,-1.674377679824829
1730553672365456400,7.203456298828125,8.720342636108398,-0.7890332937240601,-2.024028778076172
1730553672375464200,7.213464111328125,8.428119659423828,-1.0357930660247803,-2.4888346195220947
1730553672385490200,7.223490234375,8.023433685302734,-0.8922237157821655,-2.3880369663238525
1730553672395516400,7.233516357421875,7.8388872146606445,-0.631106972694397,-1.9522441625595093
1730553672405542400,7.24354248046875,7.992326736450195,-0.5039882659912109,-1.8705891370773315
1730553672415598800,7.253598876953125,8.214859008789062,-0.25244277715682983,-2.165205478668213
1730553672425628000,7.2636279296875,8.260622024536133,0.06849455088376999,-2.1939191818237305
1730553672435648000,7.27364794921875,8.368298530578613,0.11874382197856903,-1.578365683555603
1730553672445676000,7.283676025390625,8.370692253112793,-0.0849452018737793,-0.6825526356697083
1730553672455708000,7.2937080078125,8.267800331115723,-0.12323036789894104,0.05054837837815285
1730553672465736200,7.303736083984375,8.210073471069336,0.10677970945835114,0.16779668629169464
1730553672475754000,7.31375390625,8.131110191345215,0.39182472229003906,-0.02841476909816265
1730553672485781200,7.32378125,8.143074989318848,0.5428716540336609,-0.07896314561367035
1730553672495823600,7.33382373046875,8.274978637695312,0.724726140499115,0.09361918270587921
1730553672505852400,7.343852294921875,8.35872745513916,0.9236295223236084,0.09601201117038727
1730553672515873800,7.353873779296875,8.37547779083252,1.0842477083206177,0.05294119939208031
1730553672525902000,7.363902099609375,8.37547779083252,1.2999008893966675,0.009870393201708794
1730553672535940400,7.3739404296875,8.277371406555176,1.4219348430633545,-0.23688943684101105
1730553672545969700,7.3839697265625,11.044073104858398,1.8771693706512451,2.2998015880584717
1730553672555994400,7.393994384765625,13.619348526000977,2.404188632965088,3.9263229370117188
1730553672566023200,7.404023193359375,12.749557495117188,1.6686947345733643,0.7908278703689575
1730553672576031200,7.41403125,13.161721229553223,1.1727821826934814,0.22073788940906525
1730553672586058000,7.42405810546875,10.885847091674805,1.6399807929992676,-0.9436694383621216
1730553672596102000,7.434101806640625,8.588737487792969,1.5176477432250977,-1.573580026626587
1730553672606130400,7.44413037109375,7.438986301422119,1.280758261680603,-1.041775107383728
1730553672616156400,7.454156494140625,7.297510623931885,1.678265929222107,-0.4166502356529236
1730553672626184700,7.464184814453125,6.93110990524292,2.3033909797668457,-0.3807578980922699
1730553672636218600,7.474218505859375,5.773880958557129,2.734697103500366,-1.0609177350997925
1730553672646247400,7.484247314453125,5.539085388183594,3.5395829677581787,-1.542473316192627
1730553672656238600,7.494238525390625,6.054140567779541,3.5060834884643555,-1.2741780281066895
1730553672666263600,7.504263671875,6.787241458892822,3.046063184738159,-0.9604191780090332
1730553672676305700,7.5143056640625,8.186145782470703,2.772982358932495,-0.6251249313354492
1730553672686332400,7.52433251953125,9.496515274047852,2.6365914344787598,-0.5626124143600464
1730553672696381200,7.534381103515625,10.4883394241333,2.7059834003448486,-1.2454642057418823
1730553672706410000,7.544409912109375,10.260722160339355,2.3105692863464355,-0.9173483848571777
1730553672716437000,7.55443701171875,10.265508651733398,1.8915263414382935,0.13668999075889587
1730553672726465800,7.5644658203125,11.185548782348633,2.404188632965088,-1.1377872228622437
1730553672736490800,7.57449072265625,11.331510543823242,2.554936408996582,-1.628614902496338
1730553672746519000,7.58451904296875,11.341081619262695,2.763411045074463,-0.8934201598167419
1730553672756542200,7.594542236328125,11.669198036193848,2.849552631378174,-0.859621524810791
1730553672766570000,7.604570068359375,11.19033432006836,2.6198415756225586,-1.4467604160308838
1730553672776594000,7.614593994140625,10.98185920715332,2.5669004917144775,-1.7676976919174194
1730553672786621200,7.62462109375,11.245368957519531,2.38983154296875,-1.6525431871414185
1730553672796662000,7.634662109375,10.727921485900879,2.4640090465545654,-1.5592230558395386
1730553672806690800,7.64469091796875,10.902597427368164,3.1707890033721924,-1.2215359210968018
1730553672816710700,7.654710693359375,11.39372444152832,3.704986810684204,-1.4970096349716187
1730553672826738700,7.66473876953125,11.554342269897461,3.815056562423706,-1.7629120349884033
1730553672836768500,7.6747685546875,10.806884765625,3.2401809692382812,-0.9652048349380493
1730553672846796800,7.684796875,9.283254623413086,2.38983154296875,0.3810569941997528
1730553672856814600,7.694814697265625,7.702197074890137,2.1119651794433594,1.6268203258514404
1730553672866841900,7.704841796875,6.86381196975708,2.1598215103149414,2.80049991607666
1730553672876872000,7.714871826171875,6.428019046783447,1.9896320104599,3.88803768157959
1730553672886899200,7.724899169921875,6.195616245269775,1.4913266897201538,4.340879440307617
1730553672896931800,7.734931884765625,6.336792469024658,1.1153544187545776,4.074976921081543
1730553672906960000,7.7449599609375,6.542874336242676,1.3597214221954346,3.624528169631958
1730553672916970000,7.754969970703125,6.665207386016846,1.9824535846710205,3.0376882553100586
1730553672926996200,7.764996337890625,7.036394119262695,2.406581401824951,2.340479612350464
1730553672937047600,7.775047607421875,7.513164043426514,2.8905298709869385,1.5430715084075928
1730553672947076000,7.785076171875,7.817351341247559,3.24735951423645,1.0088738203048706
1730553672957081000,7.7950810546875,7.8795647621154785,3.5443685054779053,0.8889335989952087
1730553672967107300,7.805107421875,8.641380310058594,4.073780536651611,0.5679962635040283
1730553672977154000,7.815154052734375,10.232008934020996,4.124029636383057,0.3858426511287689
1730553672987182300,7.825182373046875,11.187941551208496,3.606581926345825,0.8817551732063293
1730553672997221400,7.835221435546875,11.604591369628906,3.0173492431640625,1.5212370157241821
1730553673007251000,7.8452509765625,11.741281509399414,2.444866418838501,1.7991034984588623
1730553673017281800,7.85528173828125,11.571091651916504,2.1047866344451904,1.7177475690841675
1730553673027311600,7.8653115234375,10.9002046585083,2.1311075687408447,1.4662020206451416
1730553673037335300,7.875335205078125,9.767203330993652,2.4496521949768066,0.9463613629341125
1730553673047364400,7.8853642578125,8.46879768371582,2.940778970718384,0.6493522524833679
1730553673057346300,7.89534619140625,7.259225845336914,3.4052858352661133,0.6684948205947876
1730553673067370800,7.905370849609375,6.226722717285156,3.7767715454101562,0.7043871879577637
1730553673077445400,7.9154453125,5.555835247039795,3.9948174953460693,0.9128618240356445
1730553673087475000,7.925474853515625,5.282754421234131,4.006781578063965,1.1668001413345337
1730553673097473300,7.935473388671875,5.546263694763184,3.932304859161377,1.4398809671401978
1730553673107499500,7.94549951171875,6.377769470214844,3.6735808849334717,1.6339987516403198
1730553673117560800,7.955560791015625,7.51077127456665,3.323929786682129,1.729711651802063
1730553673127590400,7.96559033203125,8.574380874633789,2.998206853866577,1.7033905982971191
1730553673137610000,7.97560986328125,9.307182312011719,2.9383862018585205,1.267298698425293
1730553673147638500,7.985638427734375,9.84138011932373,3.0939197540283203,0.6876373887062073
1730553673157671700,7.995671630859375,10.253543853759766,3.2593235969543457,0.10079765319824219
1730553673167701000,8.005700927734376,10.325328826904297,3.424727439880371,-0.09092725813388824
1730553673177726500,8.0157265625,10.208080291748047,3.551547050476074,0.01704886183142662
1730553673187755300,8.02575537109375,9.915857315063477,3.5443685054779053,0.055334024131298065
1730553673197779000,8.035779052734375,9.491728782653809,3.4989049434661865,0.03858426585793495
1730553673207807200,8.04580712890625,8.93838882446289,3.573082447052002,0.09361918270587921
1730553673217838600,8.055838623046874,8.313263893127441,3.7552361488342285,0.19172491133213043
1730553673227867100,8.0658671875,7.63519811630249,3.999603033065796,0.1175474151968956
1730553673237882600,8.075882568359376,7.050751209259033,4.2415771484375,-0.004486542660742998
1730553673247910000,8.085909912109376,6.6939215660095215,4.397110939025879,-0.040378883481025696
1730553673257944000,8.095944091796875,6.658029079437256,4.61276388168335,-0.22492532432079315
1730553673267972000,8.10597216796875,6.890132904052734,4.8930230140686035,-0.7543373107910156
1730553673278005200,8.116005126953125,6.978966236114502,5.487041473388672,-2.227717876434326
1730553673288033500,8.126033447265625,7.139285564422607,6.431009769439697,-3.7654054164886475
1730553673298055200,8.13605517578125,7.024429798126221,6.411867141723633,-3.571586847305298
1730553673308083000,8.1460830078125,7.275975227355957,5.087141036987305,-2.622832775115967
1730553673318067000,8.15606689453125,8.512166976928711,3.50129771232605,-1.784447431564331
1730553673328090400,8.16609033203125,10.150652885437012,2.5334010124206543,-1.0824531316757202
1730553673338159400,8.176159423828125,11.11346435546875,2.2148563861846924,-0.8189435601234436
1730553673348187400,8.1861875,10.962717056274414,2.3201406002044678,-0.9388837814331055
1730553673358203400,8.196203369140624,10.222437858581543,2.7753751277923584,-1.1593226194381714
1730553673368230100,8.206230224609374,8.888139724731445,3.271287679672241,-1.1856436729431152
1730553673378281500,8.216281494140626,7.4724860191345215,3.446262836456299,-1.5185450315475464
1730553673388310500,8.226310546875,6.768098831176758,3.4654054641723633,-1.5831513404846191
1730553673398333400,8.23633349609375,6.947859764099121,3.582653760910034,-1.0106685161590576
1730553673408362000,8.246362060546875,6.885347366333008,2.974278450012207,-2.0288145542144775
1730553673418391800,8.256391845703124,7.508378505706787,2.8232316970825195,-1.5807584524154663
1730553673428420600,8.266420654296875,8.916853904724121,2.9766714572906494,-0.5985047817230225
1730553673438435800,8.276435791015626,10.06421184539795,3.0963125228881836,-0.14356936514377594
1730553673448463000,8.286463134765626,10.143474578857422,3.0891339778900146,-0.014057832770049572
1730553673458497300,8.296497314453125,9.937392234802246,3.06999135017395,0.09122636169195175
1730553673468525300,8.306525390625,9.908679008483887,3.081955671310425,0.16540385782718658
1730553673478559500,8.3165595703125,9.74088191986084,3.0939197540283203,0.357128769159317
1730553673488588000,8.326588134765625,9.400801658630371,3.189931631088257,0.4938187599182129
1730553673498611200,8.336611083984375,9.348159790039062,3.860520124435425,0.1989033818244934
1730553673508639200,8.34663916015625,9.41037368774414,4.025924205780029,0.1869392693042755
1730553673518681300,8.356681396484374,9.659525871276855,3.4821550846099854,0.23270200192928314
1730553673528711000,8.3667109375,9.489336013793945,2.866302490234375,0.3332005441188812
1730553673538713600,8.376713623046875,8.924032211303711,3.0891339778900146,0.43130627274513245
1730553673548740400,8.386740234375,7.599305629730225,3.7097723484039307,0.8937192559242249
1730553673558780700,8.39678076171875,10.397412300109863,3.4917263984680176,0.46002015471458435
1730553673568808700,8.40680859375,11.01296615600586,2.7035903930664062,-0.39511483907699585
1730553673578841000,8.416841064453125,10.435697555541992,2.1215364933013916,0.9463613629341125
1730553673588869600,8.42686962890625,9.518050193786621,1.8604196310043335,2.00518536567688
1730553673598895900,8.436895751953125,9.326624870300293,2.164607286453247,0.5368895530700684
1730553673608924200,8.446924072265626,9.649954795837402,2.638984203338623,-0.3278166949748993
1730553673618927600,8.456927734375,9.990034103393555,2.7610182762145996,-0.04995017126202583
1730553673628953300,8.466953369140626,10.198509216308594,2.521436929702759,0.26620152592658997
1730553673638990300,8.476990234375,10.24158000946045,2.3706889152526855,0.4456632137298584
1730553673649017300,8.487017333984374,10.32772159576416,2.29142689704895,0.36191442608833313
1730553673659061500,8.4970615234375,10.34207820892334,1.9513468742370605,0.3403790295124054
1730553673669090000,8.507090087890624,10.160223960876465,1.6136597394943237,0.9367900490760803
1730553673679117000,8.517116943359374,9.491728782653809,1.572981834411621,1.5188441276550293
1730553673689145300,8.527145263671875,8.880961418151855,1.800299882888794,1.2843475341796875
1730553673699167700,8.537167724609375,8.904889106750488,2.226820468902588,0.9224331378936768
1730553673709195500,8.547195556640625,9.194720268249512,2.600399971008301,1.07826566696167
1730553673719226000,8.55722607421875,8.9910306930542,2.4233310222625732,0.865005373954773
1730553673729254100,8.567254150390625,8.26540756225586,1.908276081085205,-0.07657032459974289
1730553673739271700,8.577271728515624,8.282156944274902,1.3621143102645874,-1.077667474746704
1730553673749298700,8.587298583984374,9.012566566467285,1.0148558616638184,-1.7102699279785156
1730553673759343600,8.597343505859374,9.891928672790527,0.8159525394439697,-1.9857436418533325
1730553673769372400,8.607372314453125,10.066604614257812,0.5620142221450806,-1.9522441625595093
1730553673779397000,8.617397216796874,11.465807914733887,0.01585244946181774,-1.8658034801483154
1730553673789425700,8.62742578125,10.380363464355469,0.4301098585128784,-0.5434698462486267
1730553673799453200,8.637453125,9.010173797607422,0.6984050869941711,-0.05712864175438881
1730553673809481500,8.6474814453125,10.459626197814941,0.7055835723876953,-0.44775694608688354
1730553673819476500,8.6574765625,10.404590606689453,0.7561319470405579,-0.33768710494041443
1730553673829501400,8.66750146484375,10.330114364624023,0.4782654345035553,-0.31345975399017334
1730553673839552500,8.677552490234374,10.794919967651367,0.02063809521496296,-0.9053842425346375
1730553673849580000,8.687580078125,10.759027481079102,-0.26440688967704773,-1.6863417625427246
1730553673859599000,8.69759912109375,10.615159034729004,-0.42741793394088745,-2.009671926498413
1730553673869625900,8.7076259765625,10.763813972473145,-0.28115665912628174,-1.8251254558563232
1730553673879652000,8.717652099609374,10.934002876281738,0.07088737189769745,-1.4084752798080444
1730553673889678800,8.727678955078124,10.663314819335938,0.24107688665390015,-1.1327024698257446
1730553673899727600,8.7377275390625,10.409377098083496,0.125922292470932,-1.0345966815948486
1730553673909756400,8.74775634765625,10.476375579833984,-0.09212367236614227,-1.1425727605819702
1730553673919792000,8.757792236328125,10.205687522888184,0.07567301392555237,-0.7447660565376282
1730553673929821700,8.76782177734375,10.409377098083496,0.4085744619369507,-0.5195416212081909
1730553673939836400,8.77783642578125,10.727921485900879,0.5045864582061768,-0.3568296730518341
1730553673949864400,8.787864501953125,10.79013442993164,0.42771705985069275,-0.014057832770049572
1730553673959905300,8.7979052734375,11.00578784942627,0.4061816334724426,0.1462612897157669
1730553673969934600,8.8079345703125,11.381759643554688,0.44446679949760437,0.17497515678405762
1730553673979954400,8.817954345703125,11.38415241241455,0.4325026869773865,-0.05473581701517105
1730553673989983000,8.82798291015625,11.242976188659668,0.38225340843200684,-0.12681959569454193
1730553673999999200,8.837999267578125,10.79731273651123,0.3152543902397156,-0.03798605874180794
1730553674010026200,8.848026123046875,10.299007415771484,0.2913261651992798,-0.05712864175438881
1730553674020059600,8.8580595703125,10.054640769958496,0.4468596279621124,-0.04755735024809837
1730553674030087400,8.86808740234375,10.11715316772461,0.5189434289932251,0.04336991161108017
1730553674040121300,8.878121337890626,10.282258033752441,0.5093721151351929,0.04336991161108017
1730553674050149600,8.888149658203124,10.310972213745117,0.5691927075386047,0.09361918270587921
1730553674060140800,8.898140869140626,10.052248001098633,0.5907281041145325,0.2350948303937912
1730553674070165200,8.908165283203125,9.704989433288574,0.6002993583679199,0.1821536272764206
1730553674080234000,8.91823388671875,9.688240051269531,0.5404788255691528,0.02183450572192669
1730553674090263000,8.928262939453125,9.956535339355469,0.46360939741134644,-0.23210379481315613
1730553674100278300,8.9382783203125,9.856036186218262,0.5021936297416687,-0.3038884699344635
1730553674110305800,8.948305908203125,9.565906524658203,0.5524429082870483,-0.03798605874180794
1730553674120336600,8.958336669921875,9.340981483459473,0.5667998790740967,0.11276176571846008
1730553674130364700,8.96836474609375,9.180362701416016,0.5524429082870483,0.25423741340637207
1730553674140375600,8.97837548828125,9.177969932556152,0.605085015296936,0.6230311989784241
1730553674150401800,8.98840185546875,9.73370361328125,0.7704889178276062,2.120339870452881
1730553674160440300,8.9984404296875,10.6657075881958,1.2903295755386353,2.568096876144409
1730553674170467800,9.0084677734375,10.493125915527344,1.2493525743484497,1.296311616897583
1730553674180481000,9.01848095703125,9.757631301879883,0.8063812255859375,0.41934216022491455
1730553674190507300,9.02850732421875,9.340981483459473,0.7369893789291382,-0.011665010824799538
1730553674200559900,9.038559814453125,9.127720832824707,0.7968099117279053,-0.1818545162677765
1730553674210588700,9.048588623046875,9.13729190826416,0.6744768619537354,-0.06430710852146149
1730553674220614000,9.05861376953125,9.671489715576172,0.48065826296806335,0.1175474151968956
1730553674230642200,9.06864208984375,11.813066482543945,0.11635100096464157,0.21595224738121033
1730553674240670500,9.07867041015625,11.266904830932617,0.3080759048461914,0.2757728099822998
1730553674250699000,9.088698974609375,9.9469633102417,0.43489551544189453,0.40737804770469666
1730553674260731400,9.0987314453125,9.649954795837402,0.47587260603904724,0.47228336334228516
1730553674270760200,9.10876025390625,8.890532493591309,0.5620142221450806,-0.08853443711996078
1730553674280799500,9.118799560546876,8.471190452575684,0.5021936297416687,-0.2153540402650833
1730553674290829300,9.128829345703124,8.634201049804688,0.5667998790740967,0.10797612369060516
1730553674300830500,9.13883056640625,8.799605369567871,0.6768696904182434,0.2709871530532837
1730553674310857500,9.148857421875,8.928817749023438,0.5500500798225403,0.1582254022359848
1730553674320882200,9.158882080078126,9.252147674560547,0.41096729040145874,0.03858426585793495
1730553674330909000,9.168908935546876,9.647562026977539,0.39182472229003906,-0.05473581701517105
1730553674340964600,9.178964599609374,10.493125915527344,0.11635100096464157,0.12711870670318604
1730553674350994200,9.188994140625,11.42243766784668,-0.10408778488636017,0.21355941891670227
1730553674361020200,9.199020263671875,10.061819076538086,0.14745768904685974,-0.4046861231327057
1730553674371049500,9.209049560546875,9.45583724975586,0.28654050827026367,-0.5602195858955383
1730553674381079000,9.2190791015625,9.63081169128418,0.3774677813053131,-0.03559323772788048
1730553674391108400,9.2291083984375,9.728918075561523,0.3607180118560791,0.10319047421216965
1730553674401109800,9.23910986328125,9.649954795837402,0.2745763957500458,0.0649053156375885
1730553674411136300,9.24913623046875,9.530014038085938,0.3415754437446594,0.11994023621082306
1730553674421164800,9.259164794921874,9.482157707214355,0.3320041298866272,0.3044866919517517
1730553674431191300,9.26919140625,9.62363338470459,0.20009979605674744,0.48903313279151917
1730553674441238500,9.279238525390625,9.714560508728027,0.2745763957500458,0.4097708761692047
1730553674451267300,9.289267333984375,9.829416275024414,0.4540380835533142,0.2566302418708801
1730553674461274400,9.2992744140625,9.937392234802246,0.483051061630249,0.20398813486099243
1730553674471300900,9.30930078125,9.966106414794922,0.4205385744571686,0.07208377867937088
1730553674481359600,9.319359619140625,9.968499183654785,0.3200400173664093,-0.026021946221590042
1730553674491389400,9.329389404296874,10.009177207946777,0.22911277413368225,-0.07657032459974289
1730553674501399800,9.33939990234375,10.028319358825684,0.1737787425518036,-0.2273181527853012
1730553674511427600,9.349427490234374,10.037891387939453,0.11635100096464157,-0.3206382393836975
1730553674521468400,9.359468505859375,10.06421184539795,0.06610172241926193,-0.1818545162677765
1730553674531497500,9.36949755859375,9.994820594787598,0.14745768904685974,-0.05952146276831627
1730553674541522400,9.3795224609375,9.934999465942383,0.18095721304416656,0.01704886183142662
1730553674551551200,9.38955126953125,9.93260669708252,0.21714866161346436,0.0768694281578064
1730553674561578800,9.399578857421876,9.963713645935059,0.26500511169433594,0.11036894470453262
1730553674571607300,9.409607177734374,10.045069694519043,0.3655036687850952,0.12233305722475052
1730553674581605400,9.41960546875,9.994820594787598,0.4013960063457489,0.09361918270587921
1730553674591631000,9.429631103515625,9.868000984191895,0.35832518339157104,0.06969095766544342
1730553674601689900,9.43968994140625,9.793523788452148,0.4301098585128784,0.026620151475071907
1730553674611719000,9.449718994140625,9.771988868713379,0.48783671855926514,0.0026919255033135414
1730553674621720300,9.45972021484375,9.810274124145508,0.4660021960735321,0.0649053156375885
1730553674631746300,9.469746337890625,9.891928672790527,0.4734797775745392,0.13908281922340393
1730553674641808400,9.479808349609375,10.013962745666504,0.5045864582061768,0.1941177397966385
1730553674651838200,9.489838134765625,9.980463027954102,0.4540380835533142,0.17976079881191254
1730553674661869000,9.499869140625,9.745667457580566,0.42293140292167664,0.2590230405330658
1730553674671899000,9.50989892578125,9.506086349487305,0.483051061630249,0.17736798524856567
1730553674681886500,9.519886474609375,9.530014038085938,0.4492524564266205,0.0026919255033135414
1730553674691912000,9.529911865234375,9.712167739868164,0.4372883439064026,-0.07178468257188797
1730553674701943800,9.53994384765625,9.82702350616455,0.4205385744571686,-0.040378883481025696
1730553674711970000,9.549969970703126,9.822237968444824,0.3966103494167328,0.005084747914224863
1730553674722032000,9.5600322265625,9.776774406433105,0.372682124376297,0.0649053156375885
1730553674732062000,9.57006201171875,9.958928108215332,0.3080759048461914,0.026620151475071907
1730553674742072300,9.580072265625,10.088140487670898,0.2793620526790619,-0.06699903309345245
1730553674752100000,9.59010009765625,10.009177207946777,0.30568310618400574,-0.14356936514377594
1730553674762102800,9.600102783203125,9.903892517089844,0.372682124376297,-0.11485548317432404
1730553674772128000,9.6101279296875,9.805487632751465,0.4325026869773865,-0.03080759197473526
1730553674782177500,9.620177490234376,9.743274688720703,0.46839502453804016,0.012263216078281403
1730553674792205300,9.630205322265626,9.690632820129395,0.4950151741504669,0.03858426585793495
1730553674802225400,9.640225341796874,9.626026153564453,0.5285146832466125,0.0649053156375885
1730553674812252400,9.65025244140625,9.671489715576172,0.5093721151351929,0.06969095766544342
1730553674822288400,9.660288330078124,9.73370361328125,0.4782654345035553,0.13668999075889587
1730553674832316400,9.67031640625,9.757631301879883,0.4492524564266205,0.17736798524856567
1730553674842358300,9.680358154296876,9.829416275024414,0.4253242313861847,0.11036894470453262
1730553674852387600,9.6903876953125,9.923035621643066,0.39421752095222473,0.007477570790797472
1730553674862403600,9.700403564453126,9.913464546203613,0.355932354927063,-0.06191428750753403
1730553674872431400,9.710431396484376,9.884750366210938,0.3798605799674988,-0.09571290761232376
1730553674882452200,9.7204521484375,9.846165657043457,0.389431893825531,-0.13878370821475983
1730553674892479500,9.7304794921875,9.865608215332031,0.3774677813053131,-0.11964113265275955
1730553674902512600,9.7405126953125,9.913464546203613,0.4085744619369507,-0.06191428750753403
1730553674912540400,9.75054052734375,9.838987350463867,0.4540380835533142,-0.021236300468444824
1730553674922567400,9.7605673828125,9.71695327758789,0.5093721151351929,0.02183450572192669
1730553674932595200,9.77059521484375,9.664311408996582,0.46839502453804016,0.07447660714387894
1730553674942632000,9.7806318359375,9.736096382141113,0.46839502453804016,0.04097708687186241
1730553674952660700,9.79066064453125,9.836594581604004,0.497408002614975,-0.05712864175438881
1730553674962684400,9.800684326171876,9.831809043884277,0.48783671855926514,-0.08614161610603333
1730553674972712400,9.81071240234375,9.920642852783203,0.43968117237091064,-0.08374879509210587
1730553674982737400,9.8207373046875,10.006784439086914,0.39182472229003906,-0.05712864175438881
1730553674992765200,9.83076513671875,9.990034103393555,0.3798605799674988,-0.02841476909816265
1730553675002803700,9.8408037109375,9.970891952514648,0.4013960063457489,-0.03080759197473526
1730553675012832800,9.850832763671875,10.001998901367188,0.42293140292167664,-0.05234299600124359
1730553675022835000,9.8608349609375,9.966106414794922,0.372682124376297,-0.018843477591872215
1730553675032861200,9.870861083984375,9.803094863891602,0.4660021960735321,0.07447660714387894
1730553675042919700,9.880919677734376,9.750452995300293,0.5715855360031128,0.10319047421216965
1730553675052949200,9.89094921875,9.738489151000977,0.5404788255691528,0.12233305722475052
1730553675062960600,9.900960693359375,9.721739768981934,0.49262237548828125,0.09361918270587921
1730553675072988200,9.91098828125,9.666704177856445,0.4612165689468384,-0.004486542660742998
1730553675083025400,9.921025390625,9.55633544921875,0.44446679949760437,-0.03798605874180794
1730553675093054000,9.931053955078125,9.582955360412598,0.40378883481025696,-0.03320041298866272
1730553675103078100,9.941078125,9.551549911499023,0.5835496187210083,0.10319047421216965
1730553675113106200,9.951106201171875,9.355338096618652,0.760917603969574,0.031405795365571976
1730553675123131400,9.96113134765625,9.501300811767578,0.46360939741134644,0.024227328598499298
1730553675133159400,9.971159423828125,9.707382202148438,0.3798605799674988,0.06969095766544342
1730553675143196700,9.98119677734375,9.908679008483887,0.48783671855926514,0.11994023621082306
1730553675153225500,9.9912255859375,10.083354949951172,0.4540380835533142,0.10319047421216965
1730553675163256000,10.001256103515624,10.121938705444336,0.3655036687850952,0.029012974351644516
1730553675173284900,10.011284912109375,10.095318794250488,0.3774677813053131,0.014656038954854012
1730553675183306200,10.02130615234375,9.994820594787598,0.36311084032058716,0.1055833026766777
1730553675193334500,10.03133447265625,9.817452430725098,0.3607180118560791,0.12711870670318604
1730553675203370800,10.041370849609375,9.743274688720703,0.3487538993358612,0.0768694281578064
1730553675213399800,10.05139990234375,9.877572059631348,0.3678964674472809,-0.021236300468444824
1730553675223418600,10.061418701171876,9.934999465942383,0.372682124376297,-0.045164529234170914
1730553675233446700,10.07144677734375,9.944570541381836,0.32721850275993347,-0.009272187948226929
1730553675243479600,10.0814794921875,9.92542839050293,0.40378883481025696,0.10079765319824219
1730553675253508000,10.091508056640626,9.872786521911621,0.3774677813053131,0.23270200192928314
1730553675263532000,10.101531982421875,9.8871431350708,0.3966103494167328,0.2111666053533554
1730553675273560000,10.11156005859375,9.84138011932373,0.5428716540336609,0.2757728099822998
1730553675283564000,10.12156396484375,9.889535903930664,0.516550600528717,0.3403790295124054
1730553675293589500,10.131589599609375,9.896714210510254,0.483051061630249,0.12472587823867798
1730553675303642000,10.14164208984375,9.721739768981934,0.5763711333274841,0.1175474151968956
1730553675313670400,10.15167041015625,9.73370361328125,0.5715855360031128,0.07208377867937088
1730553675323703800,10.161703857421875,9.829416275024414,0.46839502453804016,0.06969095766544342
1730553675333732900,10.17173291015625,9.856036186218262,0.42293140292167664,0.09361918270587921
1730553675343724500,10.181724609375,9.860821723937988,0.4588237404823303,0.06011966988444328
1730553675353749800,10.191749755859375,9.807881355285645,0.5213362574577332,0.04576273262500763
1730553675363809500,10.2018095703125,9.695418357849121,0.5763711333274841,0.06251249462366104
1730553675373838300,10.21183837890625,9.573084831237793,0.5883352756500244,0.04815555736422539
1730553675383867100,10.2218671875,9.60927677154541,0.4372883439064026,0.1055833026766777
1730553675393895700,10.231895751953125,9.757631301879883,0.47587260603904724,0.13190434873104095
1730553675403919600,10.241919677734375,9.817452430725098,0.3655036687850952,0.09122636169195175
1730553675413948000,10.251947998046875,10.001998901367188,0.38703906536102295,0.134297177195549
1730553675423976000,10.261975830078125,9.987641334533691,0.24107688665390015,0.08404789865016937
1730553675434004200,10.272004150390625,10.001998901367188,0.28175488114356995,0.07447660714387894
1730553675444024300,10.2820244140625,10.165009498596191,0.4588237404823303,0.08165507018566132
1730553675454051800,10.2920517578125,10.126724243164062,0.4372883439064026,0.026620151475071907
1730553675464080400,10.302080322265626,9.93978500366211,0.4133601188659668,0.10319047421216965
1730553675474108000,10.31210791015625,9.822237968444824,0.40378883481025696,0.1701895147562027
1730553675484148700,10.322148681640625,9.767203330993652,0.37028929591178894,0.2063809484243393
1730553675494177500,10.332177490234375,9.74806022644043,0.4492524564266205,0.12711870670318604
1730553675504202500,10.342202392578125,9.82702350616455,0.483051061630249,0.04097708687186241
1730553675514231000,10.35223095703125,9.903892517089844,0.42771705985069275,0.036191441118717194
1730553675524253700,10.362253662109374,9.851250648498535,0.42293140292167664,0.18933209776878357
1730553675534281700,10.37228173828125,9.783952713012695,0.5021936297416687,0.40259242057800293
1730553675544308000,10.382307861328124,9.673882484436035,0.5237290859222412,0.4504488706588745
1730553675554335700,10.392335693359374,9.678668022155762,0.46839502453804016,0.41216370463371277
1730553675564375600,10.40237548828125,9.661918640136719,0.4612165689468384,0.33080771565437317
1730553675574404600,10.412404541015626,9.647562026977539,0.4540380835533142,0.2829512655735016
1730553675584428800,10.4224287109375,9.659525871276855,0.514157772064209,0.24466611444950104
1730553675594457300,10.432457275390625,9.599705696105957,0.6146563291549683,0.24227328598499298
1730553675604479500,10.4424794921875,9.60209846496582,0.5667998790740967,0.2590230405330658
1730553675614507300,10.45250732421875,9.793523788452148,0.39421752095222473,0.2566302418708801
1730553675624531500,10.462531494140626,9.93260669708252,0.33439695835113525,0.2638086974620819
1730553675634559000,10.47255908203125,9.937392234802246,0.37507495284080505,0.23748764395713806
1730553675644581600,10.48258154296875,9.899106979370117,0.45643091201782227,0.2111666053533554
1730553675654608600,10.492608642578125,9.949356079101562,0.45643091201782227,0.2183450609445572
1730553675664641500,10.5026416015625,9.973284721374512,0.40378883481025696,0.22073788940906525
1730553675674669300,10.51266943359375,9.990034103393555,0.38225340843200684,0.2638086974620819
1730553675684700200,10.5227001953125,9.949356079101562,0.4468596279621124,0.2350948303937912
1730553675694728200,10.532728271484375,9.9469633102417,0.5428716540336609,0.18933209776878357
1730553675704759000,10.542759033203126,9.913464546203613,0.5620142221450806,0.18454644083976746
1730553675714787300,10.552787353515624,9.807881355285645,0.5859424471855164,0.24227328598499298
1730553675724817000,10.56281689453125,9.714560508728027,0.6146563291549683,0.3332005441188812
1730553675734845200,10.57284521484375,9.666704177856445,0.6601199507713318,0.43130627274513245
1730553675744858000,10.582858154296876,9.712167739868164,0.6720840334892273,0.44327038526535034
1730553675754885000,10.592885009765626,9.856036186218262,0.6505486369132996,0.39062830805778503
1730553675764927700,10.602927734375,9.954142570495605,0.6146563291549683,0.37866419553756714
1730553675774956300,10.612956298828125,10.030712127685547,0.5811567902565002,0.39541393518447876
1730553675784983800,10.62298388671875,9.963713645935059,0.6098706722259521,0.44327038526535034
1730553675795012000,10.63301220703125,9.798309326171875,0.6625127792358398,0.47228336334228516
1730553675805003000,10.6430029296875,9.683454513549805,0.6768696904182434,0.4576273262500763
1730553675815027500,10.65302734375,9.561120986938477,0.6864410042762756,0.46480581164360046
1730553675825093400,10.66309326171875,9.479764938354492,0.667298436164856,0.5273182988166809
1730553675835122000,10.673121826171876,9.474979400634766,0.6122635006904602,0.5967101454734802
1730553675845147000,10.68314697265625,9.59252643585205,0.5883352756500244,0.4914259612560272
1730553675855175200,10.693175048828126,9.774381637573242,0.5667998790740967,0.42412781715393066
1730553675865188600,10.703188720703125,9.846165657043457,0.5524429082870483,0.4049852192401886
1730553675875215400,10.71321533203125,9.896714210510254,0.5548357367515564,0.4336991012096405
1730553675885272800,10.72327294921875,9.963713645935059,0.5739783048629761,0.40259242057800293
1730553675895302700,10.733302734375,9.923035621643066,0.5667998790740967,0.3403790295124054
1730553675905323000,10.743322998046875,9.934999465942383,0.6170491576194763,0.2590230405330658
1730553675915352000,10.75335205078125,9.819845199584961,0.7151548862457275,0.3068794906139374
1730553675925375000,10.763375,9.72652530670166,0.7199404835700989,0.4097708761692047
1730553675935403500,10.773403564453124,9.683454513549805,0.7369893789291382,0.4746761918067932
1730553675945418800,10.783418701171875,9.697811126708984,0.7489534616470337,0.46002015471458435
1730553675955445800,10.79344580078125,9.661918640136719,0.7537391185760498,0.4145565330982208
1730553675965485800,10.80348583984375,9.614062309265137,0.7704889178276062,0.46719861030578613
1730553675975514000,10.81351416015625,9.661918640136719,0.7441678643226624,0.4049852192401886
1730553675985519400,10.823519287109375,9.829416275024414,0.6984050869941711,0.28534409403800964
1730553675995545600,10.833545654296875,9.915857315063477,0.7055835723876953,0.3188436031341553
1730553676005590300,10.84359033203125,9.831809043884277,0.7031907439231873,0.3858426511287689
1730553676015618300,10.853618408203126,9.760024070739746,0.6337988972663879,0.37866419553756714
1730553676025642000,10.86364208984375,9.882357597351074,0.602692186832428,0.32123643159866333
1730553676035669500,10.87366943359375,9.961320877075195,0.6457630395889282,0.357128769159317
1730553676045698800,10.88369873046875,9.915857315063477,0.7199404835700989,0.4794618487358093
1730553676055726300,10.893726318359375,9.896714210510254,0.760917603969574,0.5751747488975525
1730553676065722600,10.90372265625,9.863214492797852,0.7800601720809937,0.5823532342910767
1730553676075747300,10.913747314453126,9.774381637573242,0.8159525394439697,0.6278168559074402
1730553676085812000,10.92381201171875,9.704989433288574,0.7561319470405579,0.5799604058265686
1730553676095840500,10.933840576171875,9.60927677154541,0.7465606927871704,0.5656034350395203
1730553676105866200,10.9438662109375,9.611669540405273,0.6912266612052917,0.4265206456184387
1730553676115894500,10.95389453125,9.693025588989258,0.5931209325790405,0.3332005441188812
1730553676125924400,10.96392431640625,9.91825008392334,0.5715855360031128,0.17976079881191254
1730553676135952600,10.97395263671875,9.987641334533691,0.5189434289932251,0.07447660714387894
1730553676145980700,10.983980712890625,10.03310489654541,0.4854438900947571,0.1582254022359848
1730553676156009000,10.994009033203126,9.865608215332031,0.6912266612052917,0.27337998151779175
1730553676166027800,11.00402783203125,9.604491233825684,0.8015955686569214,0.532103955745697
1730553676176055300,11.01405517578125,9.522835731506348,0.7752745151519775,0.5799604058265686
1730553676186086400,11.02408642578125,9.546764373779297,0.7968099117279053,0.5775675773620605
1730553676196114200,11.0341142578125,9.503693580627441,0.8662018179893494,0.44805604219436646
1730553676206141000,11.044140869140625,9.479764938354492,0.8374879360198975,0.36670008301734924
1730553676216168700,11.054168701171875,9.453444480895996,0.6984050869941711,0.24466611444950104
1730553676226204000,11.064203857421875,9.539586067199707,0.669691264629364,0.16301104426383972
1730553676236232200,11.074232177734375,9.55633544921875,0.6098706722259521,0.2877369225025177
1730553676246249000,11.0842490234375,9.558728218078613,0.5667998790740967,0.3690928816795349
1730553676256276000,11.09427587890625,9.44626522064209,0.7342974543571472,0.4914259612560272
1730553676266311400,11.1043115234375,9.360123634338379,0.9188438653945923,0.5057829022407532
1730553676276339500,11.11433935546875,9.460622787475586,0.8733802437782288,0.587138831615448
1730553676286388200,11.12438818359375,9.659525871276855,0.724726140499115,0.5368895530700684
1730553676296418600,11.13441845703125,9.769596099853516,0.6290132403373718,0.41216370463371277
1730553676306417400,11.14441748046875,9.846165657043457,0.5644070506095886,0.3643072545528412
1730553676316444400,11.1544443359375,9.853643417358398,0.389431893825531,0.27337998151779175
1730553676326498300,11.164498291015626,9.817452430725098,0.267397940158844,0.18454644083976746
1730553676336528000,11.17452783203125,9.875179290771484,0.22193430364131927,0.04336991161108017
1730553676346550500,11.184550537109375,9.590133666992188,0.0062811593525111675,-0.4980062246322632
1730553676356579600,11.19457958984375,9.697811126708984,0.2602194547653198,-0.3496512174606323
1730553676366603500,11.204603515625,9.89432144165039,0.882951557636261,0.16779668629169464
1730553676376632000,11.214632080078125,9.407979965209961,0.8781659007072449,0.35473597049713135
1730553676386659000,11.2246591796875,9.189934730529785,0.48783671855926514,0.36191442608833313
1730553676396687400,11.234687255859376,9.422337532043457,0.46839502453804016,0.18454644083976746
1730553676406725000,11.24472509765625,9.300004005432129,0.6290132403373718,-0.17946170270442963
1730553676416754400,11.25475439453125,8.689236640930176,0.4540380835533142,-0.5961119532585144
1730553676426771500,11.264771484375,7.687839984893799,0.013459627516567707,-0.5530411601066589
1730553676436799500,11.274799560546874,8.040183067321777,-0.37477585673332214,-0.4334000051021576
1730553676446829600,11.28482958984375,8.82114028930664,-0.2907279431819916,-0.4740779995918274
1730553676456857900,11.29485791015625,9.558728218078613,-0.1423729509115219,-0.026021946221590042
1730553676466897200,11.304897216796874,20.22593116760254,-0.45134615898132324,5.222335338592529
1730553676476926500,11.314926513671875,13.264612197875977,-0.0729810893535614,2.302194595336914
1730553676486937600,11.3249375,10.028319358825684,0.2147558331489563,-0.26081767678260803
1730553676496965000,11.334965087890625,9.458230018615723,-0.22851456701755524,0.8554341197013855
1730553676506971000,11.344970947265624,9.441479682922363,0.37028929591178894,0.3044866919517517
1730553676516996400,11.354996337890626,10.926824569702148,1.5056836605072021,-0.21296121180057526
1730553676527055000,11.36505517578125,10.646265983581543,1.4530415534973145,0.27337998151779175
1730553676537084000,11.375083984375,9.206684112548828,1.7691932916641235,0.36191442608833313
1730553676547112000,11.38511181640625,8.5672025680542,1.2855439186096191,0.9583254456520081
1730553676557140500,11.395140380859376,8.928817749023438,0.6170491576194763,1.1093723773956299
1730553676567160600,11.40516064453125,9.096614837646484,0.5189434289932251,0.8075776696205139
1730553676577188600,11.415188720703124,9.094221115112305,0.5715855360031128,0.7573283910751343
1730553676587223600,11.4252236328125,9.185149192810059,0.7513462901115417,0.7525427341461182
1730553676597252000,11.435252197265624,9.396016120910645,0.760917603969574,0.6637091636657715
1730553676607283200,11.445283203125,9.721739768981934,0.5237290859222412,0.4265206456184387
1730553676617312000,11.45531201171875,10.133902549743652,0.22911277413368225,0.1869392693042755
1730553676627333600,11.465333740234374,10.277472496032715,0.11156535893678665,0.28534409403800964
1730553676637361700,11.475361572265625,9.958928108215332,0.20757736265659332,0.49621158838272095
1730553676647389200,11.48538916015625,9.470193862915039,0.0972084179520607,0.5560321807861328
1730553676657417200,11.495417236328125,9.142078399658203,-0.3002992272377014,0.4456632137298584
1730553676667448600,11.505448486328126,9.288040161132812,-0.4944169819355011,0.34995031356811523
1730553676677476900,11.515476806640624,9.458230018615723,-0.401096910238266,0.31405797600746155
1730553676687477500,11.5254775390625,9.494122505187988,-0.34606197476387024,0.357128769159317
1730553676697503200,11.535503173828126,9.795916557312012,-0.31465616822242737,0.5416752099990845
1730553676707559200,11.54555908203125,10.315757751464844,-0.16390834748744965,0.30209386348724365
1730553676717588000,11.555587890625,10.62233829498291,-0.06311069428920746,-0.17228323221206665
1730553676727616300,11.5656162109375,10.366006851196289,0.06849455088376999,-0.3158525824546814
1730553676737644800,11.575644775390625,10.160223960876465,-0.027218356728553772,-0.17946170270442963
1730553676747654100,11.585654052734375,10.009177207946777,-0.22372891008853912,0.031405795365571976
1730553676757681000,11.595680908203125,9.93978500366211,-0.4298107624053955,0.10079765319824219
1730553676767691500,11.60569140625,10.102497100830078,-0.41545382142066956,0.0768694281578064
1730553676777716500,11.615716552734375,10.119545936584473,-0.08973085135221481,0.11036894470453262
1730553676787762400,11.625762451171875,9.908679008483887,0.14267204701900482,0.28534409403800964
1730553676797789700,11.635789794921875,9.731310844421387,0.07088737189769745,0.41216370463371277
1730553676807829200,11.645829345703126,9.635597229003906,0.15702898800373077,-0.13160525262355804
1730553676817857800,11.65585791015625,9.685847282409668,0.13070793449878693,-0.5147559642791748
1730553676827880000,11.6658798828125,9.60209846496582,-0.11605189740657806,-0.4046861231327057
1730553676837908000,11.675907958984375,9.55633544921875,-0.26440688967704773,-0.33529427647590637
1730553676847947000,11.685947021484376,9.544371604919434,-0.3194418251514435,-0.20817556977272034
1730553676857976000,11.69597607421875,9.59252643585205,-0.40348970890045166,0.012263216078281403
1730553676867996400,11.705996337890625,9.954142570495605,-0.4298107624053955,0.09840483218431473
1730553676878024700,11.716024658203125,10.097711563110352,-0.4082753658294678,0.16779668629169464
1730553676888039200,11.7260390625,9.877572059631348,-0.2356930375099182,0.08644071966409683
1730553676898066000,11.73606591796875,9.776774406433105,-0.07776673883199692,-0.03559323772788048
1730553676908102700,11.7461025390625,9.702596664428711,-0.08255238085985184,-0.009272187948226929
1730553676918130400,11.75613037109375,9.678668022155762,-0.17108681797981262,0.04576273262500763
1730553676928158000,11.766157958984374,9.73370361328125,-0.27397820353507996,0.0026919255033135414
1730553676938185700,11.776185791015624,9.889535903930664,-0.30508488416671753,-0.05952146276831627
1730553676948194300,11.7861943359375,9.930213928222656,-0.37956148386001587,-0.0933200865983963
1730553676958220000,11.796219970703126,10.028319358825684,-0.22372891008853912,-0.20817556977272034
1730553676968266200,11.806266357421874,10.205687522888184,0.04935196787118912,-0.5051847100257874
1730553676978294000,11.8162939453125,10.176973342895508,-0.0008973084622994065,-0.6107679605484009
1730553676988341500,11.826341552734375,9.915857315063477,-0.4369892477989197,-0.6538388133049011
1730553676998371300,11.836371337890625,9.719346046447754,-0.8057830333709717,-0.6083751320838928
1730553677008392000,11.846391845703126,9.724132537841797,-0.8368897438049316,-0.47168517112731934
1730553677018420700,11.856420654296874,10.045069694519043,-0.5350949764251709,-0.2799602448940277
1730553677028441000,11.866441162109375,10.406984329223633,-0.09690931439399719,-0.25363919138908386
1730553677038469000,11.87646923828125,10.596016883850098,-0.13519448041915894,-0.25363919138908386
1730553677048507400,11.88650732421875,10.883454322814941,-0.33888351917266846,-0.2679961323738098
1730553677058536400,11.896536376953126,10.684850692749023,-0.48006004095077515,-0.4668995141983032
1730553677068557300,11.906557373046875,10.11715316772461,-0.6598208546638489,-0.5602195858955383
1730553677078585300,11.91658544921875,9.407979965209961,-0.6765705943107605,-0.12921242415905
1730553677088613600,11.926613525390625,9.197113037109375,-0.24047867953777313,0.23988047242164612
1730553677098642000,11.936641845703125,9.477372169494629,-0.05114658549427986,0.3978067636489868
1730553677108673800,11.946673828125,9.642776489257812,-0.027218356728553772,0.37148571014404297
1730553677118702600,11.95670263671875,9.652347564697266,0.15463615953922272,0.08404789865016937
1730553677128730000,11.966730224609375,9.673882484436035,0.20518454909324646,-0.11485548317432404
1730553677138758700,11.976758544921875,9.90149974822998,0.0852443054318428,-0.1698904037475586
1730553677148782000,11.986781982421874,10.49073314666748,-0.06071787327528,-0.023629123345017433
1730553677158810000,11.99681005859375,10.763813972473145,-0.4417748749256134,0.17497515678405762
1730553677168846600,12.0068466796875,10.600802421569824,-0.7722834944725037,0.11276176571846008
1730553677178875400,12.01687548828125,10.013962745666504,-0.784247636795044,-0.37118661403656006
1730553677188892700,12.026892578125,9.367302894592285,-0.7028916478157043,-0.8117650747299194
1730553677198920400,12.03692041015625,9.166006088256836,-0.4058825373649597,-0.9340981245040894
1730553677208924000,12.046923828125,9.44626522064209,-0.2835494875907898,-0.9029914736747742
1730553677218949000,12.05694921875,9.934999465942383,-0.1256231814622879,-0.6825526356697083
1730553677229009200,12.067009033203124,10.22004508972168,0.34636107087135315,0.06251249462366104
1730553677239038000,12.077037841796875,10.38784122467041,0.7680960893630981,0.620638370513916
1730553677249063200,12.087063232421874,10.514660835266113,0.8207381963729858,0.9248259663581848
1730553677259091700,12.097091796875,10.617551803588867,0.6409773826599121,0.9798609018325806
1730553677269120800,12.107120849609375,10.572088241577148,0.267397940158844,0.587138831615448
1730553677279149000,12.117149169921875,10.591231346130371,-0.2356930375099182,0.28534409403800964
1730553677289175800,12.12717578125,10.00439167022705,-0.844068169593811,0.23270200192928314
1730553677299204000,12.1372041015625,9.204291343688965,-1.2035897970199585,0.33798620104789734
1730553677309222700,12.14722265625,8.995817184448242,-0.8273184299468994,0.15583257377147675
1730553677319250000,12.15725,8.902496337890625,-0.11605189740657806,-0.2727817893028259
1730553677329293600,12.16729345703125,8.785248756408691,0.46839502453804016,-0.6107679605484009
1730553677339322600,12.177322509765625,8.68445110321045,0.9068797826766968,-0.5769693851470947
1730553677349342000,12.187342041015626,9.077471733093262,1.2421740293502808,-0.2919243574142456
1730553677359370000,12.197369873046876,9.856036186218262,1.158425211906433,-0.05234299600124359
1730553677369399800,12.20739990234375,10.260722160339355,0.8901300430297852,0.4794618487358093
1730553677379427800,12.217427734375,10.368399620056152,0.6314060688018799,0.8913264274597168
1730553677389453800,12.227453857421875,10.100104331970215,-0.05832505226135254,1.0878369808197021
1730553677399481900,12.23748193359375,9.611669540405273,-0.7746763229370117,0.865005373954773
1730553677409513200,12.24751318359375,9.396016120910645,-0.8033902049064636,0.3690928816795349
1730553677419541500,12.25754150390625,9.700203895568848,-0.22372891008853912,0.08165507018566132
1730553677429544200,12.267544189453124,9.810274124145508,0.3152543902397156,0.04576273262500763
1730553677439570000,12.27756982421875,9.75523853302002,0.6553342938423157,-0.02841476909816265
1730553677449627600,12.287627685546875,9.520442962646484,0.727118968963623,0.09840483218431473
1730553677459656400,12.297656494140625,9.333803176879883,0.514157772064209,0.3523431420326233
1730553677469653800,12.30765380859375,9.312267303466797,0.4253242313861847,0.373878538608551
1730553677479679700,12.3176796875,9.649954795837402,0.29371899366378784,0.1821536272764206
1730553677489733600,12.327733642578124,9.872786521911621,0.1737787425518036,0.07208377867937088
1730553677499762200,12.33776220703125,9.671489715576172,-0.07537391036748886,0.04576273262500763
1730553677509788000,12.347787841796874,9.415159225463867,-0.48006004095077515,0.29012975096702576
1730553677519816200,12.357816162109375,9.546764373779297,-0.7100701332092285,0.3044866919517517
1730553677529847000,12.367846923828125,9.860821723937988,-0.6526423692703247,0.02183450572192669
1730553677539875600,12.37787548828125,10.2176513671875,-0.4417748749256134,-0.03080759197473526
1730553677549901000,12.387901123046875,10.23440170288086,-0.19740787148475647,0.10797612369060516
1730553677559929000,12.39792919921875,10.03310489654541,0.10438688844442368,0.30927231907844543
1730553677569959200,12.407959228515624,9.958928108215332,0.2554338276386261,0.4001995921134949
1730553677579987500,12.417987548828124,10.282258033752441,0.3248256742954254,0.1534397453069687
1730553677590016300,12.428016357421875,10.524231910705566,0.14027923345565796,0.07208377867937088
1730553677600044500,12.43804443359375,9.975677490234375,0.056530434638261795,0.15104693174362183
1730553677610068200,12.448068115234374,9.590133666992188,0.1666002720594406,0.024227328598499298
1730553677620096000,12.458095947265624,9.712167739868164,0.1378864049911499,-0.040378883481025696
1730553677630101800,12.468101806640625,9.669096946716309,-0.012861421331763268,-0.011665010824799538
1730553677640127500,12.47812744140625,9.458230018615723,-0.0849452018737793,0.09840483218431473
1730553677650184700,12.488184814453126,9.374481201171875,-0.18065811693668365,0.2949153780937195
1730553677660213500,12.498213623046874,9.525228500366211,-0.06311069428920746,0.709172785282135
1730553677670236400,12.508236328125,9.937392234802246,0.11635100096464157,1.0304092168807983
1730553677680264700,12.5182646484375,10.165009498596191,0.2267199456691742,1.1356934309005737
1730553677690288000,12.5282880859375,10.155438423156738,0.37507495284080505,1.0399805307388306
1730553677700316000,12.53831591796875,10.38784122467041,0.5500500798225403,0.8697910308837891
1730553677710355200,12.548355224609375,10.385448455810547,0.6290132403373718,0.8937192559242249
1730553677720384000,12.558384033203126,10.071390151977539,0.5500500798225403,1.0926226377487183
1730553677730365700,12.56836572265625,9.856036186218262,0.516550600528717,1.169192910194397
1730553677740390000,12.578389892578125,9.82702350616455,0.48065826296806335,1.2074781656265259
1730553677750464800,12.58846484375,9.635597229003906,0.4253242313861847,1.1787642240524292
1730553677760494000,12.598494140625,9.544371604919434,0.39421752095222473,1.118943691253662
1730553677770516500,12.6085166015625,9.496515274047852,0.42293140292167664,1.1165509223937988
1730553677780545000,12.618544921875,9.384052276611328,0.4660021960735321,1.1715857982635498
1730553677790571000,12.628571044921875,9.367302894592285,0.4588237404823303,1.2867404222488403
1730553677800599300,12.638599365234375,9.539586067199707,0.35832518339157104,1.3465609550476074
1730553677810630700,12.648630615234374,9.693025588989258,0.3248256742954254,1.2385848760604858
1730553677820659500,12.658659423828125,9.590133666992188,0.32243284583091736,0.9726824164390564
1730553677830677200,12.66867724609375,9.443872451782227,0.2721835672855377,0.8003991842269897
1730553677840704800,12.678704833984375,9.616455078125,0.31764721870422363,0.5991029739379883
1730553677850737400,12.6887373046875,9.980463027954102,0.3128615617752075,0.39541393518447876
1730553677860765400,12.698765380859374,10.107282638549805,0.2386840581893921,0.3164508044719696
1730553677870798300,12.70879833984375,9.997213363647461,0.2267199456691742,0.24227328598499298
1730553677880827000,12.718826904296876,9.980463027954102,0.243469700217247,0.22791635990142822
1730553677890849800,12.728849853515625,10.066604614257812,0.21954147517681122,0.251844584941864
1730553677900877800,12.7388779296875,9.956535339355469,0.15463615953922272,0.25423741340637207
1730553677910863600,12.748863525390625,9.868000984191895,0.16899310052394867,0.3116651475429535
1730553677920887300,12.75888720703125,9.800702095031738,0.24107688665390015,0.5129613280296326
1730553677930944500,12.768944580078125,9.73370361328125,0.23629122972488403,0.654137909412384
1730553677940971800,12.7789716796875,9.71695327758789,0.24825534224510193,0.5009972453117371
1730553677950975000,12.78897509765625,9.774381637573242,0.2554338276386261,0.45523449778556824
